subID,trial,Room,Condition,moveItem,Repeat,Block,ObjectMovedIs,start,end,TarPos_x,TarPos_z,TarRot_x,TarRot_z,Start_SubPos_x,Start_SubPos_z,Start_SubRot_x,Start_SubRot_z,TargetReached,End_SubPos_x,End_SubPos_z,End_SubRot_x,End_SubRot_z,response,RT,
p04,0,Room_55,stay,yes,A,1,left,B,B,58.8791,58.95954,0,0,58.85342,59.0977,0.01133605,-0.1844618,True,58.82273,59.02292,0.02013028,-0.1150863,Right,2.869737,
p04,0,Room_55,stay,yes,A,1,left,A,A,71.94855,58.125,0,0,71.99823,58.17387,0.1179186,0.1200794,True,72.01692,58.15837,0.09930155,0.04278676,Left,1.699578,
p04,1,Room_56,stay,no,B,1,left,B,B,59.2364,99.12441,0,0,59.06661,99.14465,-0.04140001,-0.1979944,True,59.10721,99.14146,-0.01133529,-0.107942,Left,1.409364,
p04,2,Room_95,stay,no,A,1,left,A,A,38.875,118.9486,0,0,38.86375,119.0144,0.03605318,-0.1608214,True,38.88647,118.9526,0.00179067,-0.01462856,Right,2.915101,
p04,3,Room_113,stay,yes,A,1,left,A,A,89.23045,49.11431,0,0,89.19507,49.19759,-0.03939376,-0.1584019,True,89.21798,49.20564,-0.05034786,-0.08869101,Right,2.55995,
p04,4,Room_48,stay,yes,A,1,left,A,A,100.3907,54.78418,0,0,100.3811,54.6376,0.1777084,0.01586065,True,100.4146,54.67085,0.09092727,-0.008000033,Left,1.629557,
p04,5,Room_59,stay,no,A,1,left,B,B,81.95954,48.1209,0,0,82.04398,48.22131,0.1641364,0.1537706,True,82.0143,48.22093,-0.06158756,-0.02279772,Right,3.84014,
p04,6,Room_47,stay,yes,A,1,left,B,B,17.77526,26.61391,0,0,17.58651,26.53055,0.08984235,-0.1797434,True,17.63887,26.60187,0.06132997,-0.03085779,Left,2.279092,
p04,7,Room_21,stay,no,B,1,left,B,A,38.26487,25.55586,0,0,38.20976,25.44895,0.1478297,-0.1879625,True,38.23381,25.49381,0.08338453,-0.08341297,Left,1.824253,
p04,8,Room_23,stay,no,B,1,left,B,A,50.40092,99.2216,0,0,50.44202,99.29167,-0.06536491,-0.1612818,True,50.35468,99.35551,-0.05297123,-0.11497,Left,2.508876,
p04,9,Room_94,stay,yes,A,1,left,A,B,41.94855,88.125,0,0,42.0218,88.15444,-0.1304691,-0.155461,True,41.95465,88.17113,-0.06770191,-0.0419586,Right,5.079869,
p04,10,Room_83,stay,yes,B,1,left,A,B,47.78418,106.6093,0,0,47.60525,106.5454,0.1038327,-0.1217574,True,47.65957,106.6536,0.05532936,-0.0786474,Left,5.944633,
p04,11,Room_104,stay,no,A,1,left,A,B,91.94855,28.125,0,0,92.11242,28.26069,0.1486548,0.08723074,True,92.04028,28.2039,0.0001596604,-0.03360548,Left,1.696965,
p04,12,Room_28,stay,no,A,1,left,B,A,32.25746,76.99095,0,0,32.32404,76.98254,0.1606776,0.09369639,True,32.31668,76.99308,0.0948814,0.04177606,Left,3.749875,
p04,13,Room_72,stay,no,A,1,left,B,A,20.38309,84.77526,0,0,20.33515,84.68272,0.2003251,-0.05060405,True,20.4153,84.70005,0.08559642,-0.02197564,Right,2.30275,
p04,14,Room_81,stay,yes,A,1,left,A,B,27.88569,106.2305,0,0,27.83755,106.2575,0.1900999,-0.2005605,True,27.82128,106.2305,0.1266671,-0.0672579,Left,2.912351,
p04,15,Room_102,stay,yes,B,1,left,B,A,37.88569,67.76955,0,0,38.0155,65.81978,0.08801509,-0.118474,True,37.78129,67.75483,-0.1408877,-0.05647626,Right,4.109662,
p04,16,Room_63,walk,no,A,2,left,A,B,31.458,118.7235,0,0,32.37688,116.9387,0.09317175,0.06191264,True,31.62375,118.8169,-0.0009553539,-0.07567177,Left,2.035602,
p04,17,Room_112,walk,no,A,2,left,B,A,109.6093,34.78418,0,0,111.4647,35.15768,0.2086583,0.01026341,True,109.6182,34.65769,0.05781194,-0.03353459,Right,2.960308,
p04,18,Room_40,walk,no,A,2,left,A,B,102.1244,27.7636,0,0,102.0827,25.76035,0.1386022,0.04335001,True,102.3158,27.8184,0.06546394,-0.03282044,Right,3.342668,
p04,19,Room_29,walk,yes,A,2,left,B,A,111.125,58.94856,0,0,109.1582,59.30897,-0.05277836,-0.1030375,True,111.1021,59.04171,-0.05945485,-0.05396764,Left,1.615856,
p04,20,Room_60,walk,no,B,2,left,A,B,110.4009,99.2216,0,0,112.1035,98.21326,0.0990907,0.1140774,True,110.4086,99.32509,0.02973772,-0.04729665,Left,1.83394,
p04,21,Room_100,walk,no,B,2,left,A,B,32.11823,86.2194,0,0,30.90588,84.6434,0.1292161,-0.04852162,True,32.23428,86.18209,0.09554931,0.04935341,Left,1.538812,
p04,22,Room_82,walk,no,B,2,left,B,A,38.875,105.0514,0,0,40.84224,104.7751,0.2325282,-0.05597007,True,38.86077,104.9819,0.03537945,-0.01724042,Left,3.615447,
p04,23,Room_103,walk,yes,A,2,left,B,B,21.44627,68.7236,0,0,19.57141,69.39909,0.01300441,-0.0274672,True,21.49322,68.79214,-0.02510159,-0.1022995,Right,3.354483,
p04,24,Room_61,walk,yes,A,2,left,B,B,88.05145,5.875,0,0,89.63564,4.545745,0.1393188,-0.04575877,True,88.02824,5.845126,0.1507336,-0.04672496,Left,2.388102,
p04,25,Room_8,walk,no,B,2,left,B,B,60.76955,59.11431,0,0,58.76054,59.08042,-0.06779938,-0.196269,True,60.7531,59.19761,-0.1643132,-0.07553536,Right,4.112574,
p04,26,Room_55,walk,yes,B,2,left,A,A,109.2364,59.12442,0,0,111.1786,59.1026,-0.06273695,-0.1213428,True,109.3046,59.25911,0.0373385,-0.06895252,Right,5.686059,
p04,27,Room_60,walk,yes,A,2,left,A,A,37.7784,97.40092,0,0,38.72582,99.10644,0.1316072,-0.07033693,True,37.56391,97.49455,0.03125272,-0.01847255,Right,6.181108,
p04,28,Room_93,walk,no,A,2,left,B,B,107.7842,76.60929,0,0,108.7815,74.89124,0.1371884,-0.08731419,True,107.7209,76.55729,0.03465827,-0.112435,Right,3.733442,
p04,29,Room_80,walk,yes,B,2,left,A,A,62.12441,117.7636,0,0,61.98762,115.8817,0.1247613,0.03646827,True,62.20679,117.8103,0.03907042,0.04787691,Left,6.257581,
p04,30,Room_115,walk,yes,A,2,left,A,A,57.87559,76.2364,0,0,57.85248,78.16427,-0.01040801,-0.1519782,True,57.70821,76.12681,0.003513376,0.006177008,Left,6.181376,
p04,31,Room_75,walk,yes,B,2,left,B,B,31.458,48.7235,0,0,31.64007,48.88716,-0.1584858,-0.08410659,True,31.52002,48.77631,-0.05834943,-0.1019963,Left,1.555411,
p04,32,Room_42,stay,no,A,3,left,A,A,72.1143,67.76955,0,0,72.08205,67.77343,0.1456058,0.1225899,True,72.0359,67.72462,0.1297648,0.095951,Left,3.453905,
p04,33,Room_66,stay,yes,A,3,left,A,A,20.76955,114.8857,0,0,20.66769,114.872,0.1093129,-0.00354141,True,20.7238,114.8892,0.04433993,-0.007331703,Left,3.590203,
p04,34,Room_111,stay,no,B,3,left,B,B,40.7636,14.87559,0,0,40.78496,14.90462,0.3227786,-0.002575748,True,40.81269,14.83247,0.1796315,-0.07030793,Right,6.350938,
p04,35,Room_13,stay,no,B,3,left,B,B,62.11823,86.2194,0,0,62.09477,86.31028,0.1642773,0.08199892,True,62.17094,86.25555,0.04526099,0.05474197,Right,7.977753,
p04,36,Room_85,stay,yes,A,3,left,B,B,98.0495,48.13657,0,0,97.86633,48.1725,0.05480631,-0.1917831,True,97.93631,48.2441,-0.02345241,-0.1133452,Right,2.363783,
p04,37,Room_49,stay,yes,A,3,left,A,A,67.78418,37.39071,0,0,67.67095,37.20692,0.1075812,-0.05184239,True,67.76742,37.43602,0.001792418,-0.1074348,Left,2.162377,
p04,38,Room_36,stay,no,B,3,left,A,A,50.39071,74.78418,0,0,50.49243,74.70017,0.189749,0.02430731,True,50.34144,74.83242,0.02481625,-0.01701179,Right,2.7839,
p04,39,Room_74,stay,yes,A,3,left,A,B,112.1143,117.7695,0,0,112.1168,117.9064,-0.121572,-0.1468575,True,112.1427,117.7032,0.03421563,0.01991367,Left,2.508199,
p04,40,Room_120,stay,no,B,3,left,B,A,19.2194,74.88177,0,0,19.20167,74.80727,0.06930201,-0.05292534,True,19.20405,74.74542,0.07530509,-0.01735185,Left,2.304744,
p04,41,Room_71,stay,yes,B,3,left,A,B,50.39071,9.215818,0,0,50.395,9.336111,-0.08331766,-0.04864931,True,50.43282,9.297308,-0.0585278,-0.1152456,Left,4.87172,
p04,42,Room_4,stay,no,A,3,left,B,A,38.0495,58.13657,0,0,37.94913,58.08386,0.01126603,-0.2943731,True,37.91404,58.13154,-0.08461642,0.0625351,Left,4.359075,
p04,43,Room_53,stay,yes,B,3,left,A,B,41.44627,35.2764,0,0,41.52493,35.27378,0.2537268,0.05089519,True,41.44553,35.21296,0.1061745,0.008377719,Right,3.503586,
p04,44,Room_33,stay,yes,A,3,left,B,A,48.26487,55.55586,0,0,48.22741,55.52427,0.1388541,-0.1286534,True,48.17629,55.45019,0.1235588,-0.1214655,Left,4.140623,
p04,45,Room_54,stay,no,B,3,left,A,B,81.44627,58.7236,0,0,81.50959,58.80143,-0.04957717,-0.1344814,True,81.5275,58.86545,-0.07560199,-0.08495437,Left,6.209727,
p04,46,Room_57,stay,yes,B,3,left,B,A,107.8818,47.7806,0,0,107.7469,47.76743,0.07880355,-0.1287968,True,107.761,47.81519,0.006673283,-0.03371607,Left,2.493354,
p04,47,Room_50,stay,no,A,3,left,A,B,71.95049,25.86343,0,0,70.45834,24.68976,0.1520847,0.02754293,True,72.13593,25.71825,0.1492978,0.07364437,Right,3.635141,
p04,48,Room_26,walk,yes,B,4,left,B,A,68.05145,78.125,0,0,67.67176,76.15254,0.0808719,-0.1633934,True,67.96197,77.93434,-0.0418898,-0.1102863,Left,2.405629,
p04,49,Room_76,walk,no,B,4,left,B,A,91.44627,55.2764,0,0,92.39905,56.98388,0.1235696,0.03625336,True,91.50542,55.30099,0.1069669,0.01756105,Left,4.23051,
p04,50,Room_58,walk,yes,B,4,left,A,B,37.7784,97.40092,0,0,38.65237,98.87635,-0.08196285,-0.2122853,True,37.74578,97.40637,0.0135273,-0.02418637,Left,3.690769,
p04,51,Room_93,walk,yes,B,4,left,A,B,48.86343,105.0495,0,0,47.64979,106.5053,0.0501356,-0.09195614,True,48.69243,104.8242,0.1061068,-0.07711849,Left,3.120511,
p04,52,Room_104,walk,no,B,4,left,A,B,78.8791,28.95954,0,0,80.79709,29.23115,-0.0589527,-0.1039065,True,78.76885,29.03185,-0.09506485,-0.02386762,Left,2.321988,
p04,53,Room_27,walk,no,A,4,left,B,A,32.25,97,0,0,31.30309,98.79356,-0.009948205,-0.1512775,True,32.16539,97.19173,0.3125815,0.2537495,Right,2.618158,
p04,54,Room_92,walk,yes,B,4,left,B,A,78.05145,108.125,0,0,77.82059,106.1087,0.1491632,-0.2264442,True,77.93594,107.9683,-0.05595117,0.01743622,Left,3.146834,
p04,55,Room_107,walk,no,A,4,left,B,B,101.9486,25.875,0,0,102.1779,27.83306,0.1661367,0.189043,True,101.9652,25.94219,0.1437239,-0.02780611,Right,5.796947,
p04,56,Room_29,walk,yes,B,4,left,B,B,52.21582,66.60929,0,0,51.63633,68.53503,-0.01276035,-0.1896202,True,52.23235,66.72525,0.05490875,0.02905488,Left,1.975808,
p04,57,Room_64,walk,yes,A,4,left,A,A,78.04046,65.8791,0,0,77.67793,67.5955,0.1156182,-0.003181174,True,77.9538,65.9698,0.07334741,-0.07945185,Left,2.29465,
p04,58,Room_67,walk,no,B,4,left,A,A,57.88177,107.7806,0,0,58.78634,109.1963,0.007959961,-0.04687061,True,57.97545,107.8297,0.06595776,-0.1468544,Left,1.847203,
p04,59,Room_105,walk,no,A,4,left,B,B,88.05145,5.875,0,0,89.62111,4.561732,0.1435716,-0.1448463,True,88.04627,5.891959,-0.04023618,-0.01347473,Left,2.895656,
p04,60,Room_8,walk,yes,A,4,left,A,A,49.2194,114.8818,0,0,47.69838,116.1368,0.09198485,-0.1242854,True,49.15311,114.9081,0.1001364,-0.02673083,Left,5.39246,
p04,61,Room_114,walk,yes,A,4,left,B,B,98.05145,85.875,0,0,99.56508,84.55621,0.1774915,-0.1082124,True,98.06484,85.79738,0.1391932,-0.1121185,Left,1.834885,
p04,62,Room_89,walk,no,B,4,left,A,A,81.458,18.7235,0,0,82.3325,17.17473,0.07922837,0.1146051,True,81.57516,18.80388,-0.07208715,-0.06266646,Left,1.71428,
p04,63,Room_17,walk,no,A,4,left,A,A,52.21582,66.60929,0,0,52.26293,66.72525,0.1734976,0.1545101,True,52.27179,66.6416,0.1144197,0.06522791,Right,2.659497,
p04,64,Room_64,stay,no,B,5,left,B,B,22.11823,116.2194,0,0,22.15194,116.1125,0.0843488,0.00813514,True,22.17232,116.1837,0.1375761,0.0483918,Left,1.820963,
p04,65,Room_111,stay,no,A,5,left,A,A,80.76955,79.11431,0,0,80.69246,79.01718,0.05813871,-0.1657941,True,80.73717,79.12334,-0.06641965,-0.1401252,Right,4.820425,
p04,66,Room_77,stay,no,A,5,left,A,A,80.76955,79.11431,0,0,80.70364,79.13451,-0.1553749,-0.3253168,True,80.72164,79.07636,0.004425023,0.03439334,Left,1.974305,
p04,67,Room_77,stay,yes,B,5,left,B,B,79.61691,59.22474,0,0,79.59387,59.19006,-0.1329716,-0.1015668,True,79.53519,59.21949,0.0726395,0.1053221,Left,2.668545,
p04,68,Room_57,stay,yes,A,5,left,A,A,62.21582,26.60929,0,0,62.27648,26.54658,0.09120044,0.01379378,True,62.26755,26.62498,-0.06224366,-0.0009993634,Right,2.367548,
p04,69,Room_25,stay,yes,B,5,left,B,B,58.55586,8.735132,0,0,58.50623,8.797895,0.05126486,-0.1888654,True,58.46967,8.781462,-0.0388735,-0.06954377,Left,2.377622,
p04,70,Room_5,stay,no,A,5,left,B,B,40.7636,14.87559,0,0,40.82518,14.74705,0.240867,-0.05339156,True,40.82829,14.68691,0.1079004,0.01548038,Right,5.412647,
p04,71,Room_13,stay,yes,A,5,left,B,A,52.2216,16.59908,0,0,52.3587,16.75978,0.04992098,0.07492221,True,52.39754,16.60085,0.1254866,0.01946816,Left,3.357553,
p04,72,Room_14,stay,no,A,5,left,A,B,79.60929,4.784183,0,0,79.62517,4.738549,0.3105321,-0.12786,True,79.59057,4.69347,0.02003143,0.006789615,Right,3.922136,
p04,73,Room_7,stay,yes,A,5,left,B,A,32.12441,27.7636,0,0,32.36243,27.96227,0.03544373,0.09591358,True,32.29997,27.8432,-0.003044485,-0.1083055,Left,3.335006,
p04,74,Room_22,stay,no,B,5,left,B,A,90.38309,74.77526,0,0,90.46801,74.77541,0.2053164,-0.01957647,True,90.43115,74.65789,0.06045565,0.02094101,Right,4.342055,
p04,75,Room_78,stay,yes,B,5,left,A,B,58.2764,68.44627,0,0,58.1865,68.53791,0.007114344,-0.2092033,True,58.20638,68.41698,-0.02536336,-0.05759202,Left,6.667144,
p04,76,Room_65,stay,yes,A,5,left,A,B,39.23045,44.88569,0,0,39.22064,44.72374,0.08563236,-0.04581782,True,39.23688,44.84295,0.02780009,0.06209814,Left,1.293173,
p04,77,Room_43,stay,yes,A,5,left,A,B,107.7842,76.60929,0,0,107.7427,76.51535,0.1770377,-0.08307626,True,107.7846,76.57862,0.1391117,-0.1577771,Right,4.770644,
p04,78,Room_80,stay,no,A,5,left,B,A,17.7784,17.40092,0,0,17.78326,17.3979,-0.01565926,-0.1627905,True,17.65394,17.25979,0.00850598,-0.07471497,Right,5.920582,
p04,79,Room_11,stay,no,A,5,left,A,B,51.95049,75.86343,0,0,50.50129,74.67456,0.205655,0.04986386,True,52.12226,75.81966,0.09593777,0.03352695,Left,4.315134,
p04,80,Room_74,walk,yes,B,6,left,A,B,59.61691,19.22474,0,0,61.59053,18.91027,-0.1727966,-0.2788097,True,59.68748,19.3761,0.02422515,-0.1031882,Right,2.93194,
p04,81,Room_15,walk,yes,B,6,left,B,A,68.2764,98.44627,0,0,67.49047,96.51571,0.02313574,-0.1084642,True,68.15594,98.40212,0.03747984,-0.0952067,Left,2.464544,
p04,82,Room_96,walk,no,A,6,left,B,A,88.55373,75.2764,0,0,90.48772,74.73535,0.1678224,-0.06457696,True,88.57049,75.19414,-0.07541467,-0.01781543,Right,5.394145,
p04,83,Room_78,walk,no,A,6,left,A,B,28.04046,65.8791,0,0,27.50971,67.80424,0.02882779,-0.1782839,True,27.79284,65.77689,0.1078913,-0.06332881,Right,4.976065,
p04,84,Room_62,walk,no,A,6,left,B,A,109.2305,49.11431,0,0,107.73,47.68498,0.1474825,-0.2196334,True,109.1755,49.11618,-0.02560105,-0.006957791,Left,4.947451,
p04,85,Room_50,walk,yes,B,6,left,B,A,71.94855,58.125,0,0,70.4157,59.39695,-0.07240236,-0.1551123,True,71.86468,58.20272,-0.1151301,-0.1141498,Left,1.627536,
p04,86,Room_56,walk,no,A,6,left,A,B,91.95954,118.1209,0,0,92.2827,116.361,0.1882325,0.08450527,True,91.95049,118.1807,0.07387373,0.07912718,Left,3.403445,
p04,87,Room_118,walk,yes,A,6,left,B,B,91.44627,15.2764,0,0,92.1571,16.98757,0.1957177,0.1215716,True,91.40685,15.42441,0.2063243,0.002580279,Left,1.809821,
p04,88,Room_18,walk,no,A,6,left,A,A,48.55586,8.735132,0,0,50.31479,9.094467,-0.02334177,-0.07823221,True,48.49918,8.875174,-0.1124872,0.01914847,Right,2.832413,
p04,89,Room_4,walk,yes,B,6,left,A,A,30.7806,39.11823,0,0,32.02671,37.89706,-0.05936377,-0.04918871,True,30.90175,39.11435,-0.0404328,-0.1153493,Left,2.768217,
p04,90,Room_32,walk,yes,B,6,left,A,A,108.8791,18.95954,0,0,110.7914,19.26958,0.09909876,-0.1480473,True,108.9123,19.15932,0.0157067,0.01815239,No response,N/A,
p04,91,Room_20,walk,no,A,6,left,A,A,99.2194,74.88177,0,0,97.68979,76.09795,0.07984642,-0.1299586,True,99.24268,74.78223,0.08245116,-0.03436079,Left,4.006227,
p04,92,Room_79,walk,yes,A,6,left,B,B,100.7695,99.11431,0,0,98.97748,98.9825,-0.001208543,-0.2433269,True,100.7052,99.11113,-0.06344435,-0.09749649,Left,2.730598,
p04,93,Room_99,walk,no,A,6,left,B,B,59.60929,39.21582,0,0,57.92647,38.09837,-0.06326562,-0.2402095,True,59.5328,39.1668,-0.06462986,-0.08875786,Left,5.763602,
p04,94,Room_35,walk,no,B,6,left,B,B,98.05145,85.875,0,0,99.51498,84.49624,0.1728716,-0.1083502,True,98.03575,85.77946,0.1028846,-0.1201745,Left,6.149201,
p04,95,Room_89,walk,yes,A,6,left,B,B,61.458,48.7235,0,0,61.46864,48.81139,0.2207056,0.09901721,True,61.5064,48.77826,0.02504166,-0.05150957,Left,2.268718,
p04,96,Room_45,stay,no,B,7,left,B,B,82.12441,37.7636,0,0,82.0752,37.79808,0.01095981,0.1012811,True,82.24399,37.86999,0.02197804,0.009115815,Right,3.307815,
p04,97,Room_37,stay,yes,B,7,left,A,A,111.9486,98.125,0,0,112.0032,98.29164,0.002219588,-0.1133865,True,111.9885,98.18126,-0.005147857,-0.01527041,Left,2.429415,
p04,98,Room_100,stay,yes,A,7,left,A,A,79.60929,4.784183,0,0,79.62888,4.654974,0.09853455,-0.06211879,True,79.64198,4.819868,0.0914799,-0.02940246,Left,3.913808,
p04,99,Room_7,stay,no,B,7,left,A,A,32.25,97,0,0,32.36164,97.15668,-0.00131814,0.06472328,True,32.15651,97.03123,0.09395119,0.01659254,Left,1.258507,
p04,100,Room_92,stay,no,A,7,left,B,B,98.55586,68.73513,0,0,98.41702,68.69658,-0.04095416,-0.2717928,True,98.45693,68.71502,-0.08995645,-0.1785631,Right,5.730578,
p04,101,Room_69,stay,yes,B,7,left,A,A,69.23045,19.11431,0,0,69.60526,19.03881,-0.04220609,-0.1234831,True,69.32108,18.99704,-0.01800189,-0.07475419,Left,5.340354,
p04,102,Room_16,stay,no,B,7,left,B,B,57.87559,76.2364,0,0,57.83037,76.0872,0.2441609,-0.2129579,True,57.85003,76.16831,0.09038144,-0.05722546,Left,2.287507,
p04,103,Room_75,stay,no,A,7,left,A,B,18.875,8.948557,0,0,18.82713,8.854343,-0.006661438,-0.2321502,True,18.89652,8.824707,0.07621831,-0.05254016,Right,4.265884,
p04,104,Room_1,stay,yes,B,7,left,B,A,61.458,48.7235,0,0,61.31443,48.70436,-0.1622739,-0.2218107,True,61.40381,48.69954,-0.03345484,-0.0266268,Left,2.148028,
p04,105,Room_45,stay,no,A,7,left,B,A,89.2364,39.12442,0,0,89.08407,39.04679,0.03088322,-0.1321474,True,89.19043,39.15022,0.004516043,-0.08226551,Left,5.692347,
p04,106,Room_38,stay,yes,A,7,left,A,B,112.2158,6.609292,0,0,112.2674,6.718573,0.1173789,0.07178403,True,112.2063,6.66236,-0.01447848,-0.03721385,Right,3.736847,
p04,107,Room_10,stay,no,B,7,left,A,B,77.8857,116.2305,0,0,77.81164,116.168,0.1019387,-0.0781765,True,77.92465,116.1899,0.1183003,-0.1276959,Right,4.131047,
p04,108,Room_117,stay,no,A,7,left,B,A,18.86343,55.0495,0,0,19.06039,54.93617,0.2558033,-0.1023374,True,18.80328,55.01148,0.02467492,0.01071934,Right,4.327517,
p04,109,Room_51,stay,yes,B,7,left,B,A,50.40092,99.2216,0,0,50.37757,99.26329,-0.04277895,-0.07616654,True,50.39943,99.31264,0.04688735,-0.09289721,Left,4.929946,
p04,110,Room_94,stay,yes,B,7,left,A,B,90.39071,109.2158,0,0,90.33424,109.3162,-0.02674233,-0.1012806,True,90.36548,109.1607,-0.01911716,-0.1012153,Right,3.094246,
p04,111,Room_108,stay,yes,B,7,left,A,B,32.25746,76.99095,0,0,31.49466,75.22066,0.1905354,0.03870199,True,32.28616,77.01574,0.1233943,0.08025835,Left,4.150949,
p04,112,Room_72,walk,no,B,8,left,A,B,22.11823,46.2194,0,0,20.83394,44.93332,0.1533593,0.07354743,True,22.16354,46.24086,0.05680826,0.02437696,Left,1.908626,
p04,113,Room_41,walk,no,A,8,left,B,A,68.05145,78.125,0,0,67.66109,76.14381,0.1294249,-0.1456904,True,68.12872,77.95036,0.03645183,-0.1042592,Left,2.876733,
p04,114,Room_76,walk,yes,A,8,left,A,B,47.87559,86.2364,0,0,47.90504,88.12411,0.06434758,-0.2365355,True,47.7704,86.1453,0.04440119,-0.07216979,Left,2.667927,
p04,115,Room_84,walk,yes,B,8,left,B,A,98.05145,5.875001,0,0,99.63667,4.600897,0.1603339,-0.05670123,True,98.24628,5.889436,0.07399807,-0.03501424,Left,2.242082,
p04,116,Room_9,walk,no,A,8,left,B,A,39.23045,4.88569,0,0,41.21939,5.084294,0.2005632,0.02310288,True,39.35232,4.928619,0.119283,-0.05483822,Right,4.045604,
p04,117,Room_3,walk,yes,A,8,left,A,B,92.25746,16.99095,0,0,91.6413,15.16795,0.206622,0.1407573,True,92.27322,17.01674,0.3929871,0.3868395,Left,3.382745,
p04,118,Room_18,walk,no,B,8,left,B,A,68.2764,98.44627,0,0,67.56727,96.69642,0.1718223,-0.2212523,True,68.23409,98.29012,-0.08547959,-0.03936543,Right,2.516023,
p04,119,Room_96,walk,yes,B,8,left,B,B,110.7695,64.88569,0,0,112.1886,66.24432,0.08423027,0.0717442,True,110.7491,64.93462,0.06184934,-0.01112268,Right,3.154649,
p04,120,Room_70,walk,no,B,8,left,A,A,38.0495,78.13657,0,0,39.42038,79.21563,0.09881949,-0.1560853,True,38.00821,78.09721,0.01492525,-0.1054446,Left,4.160895,
p04,121,Room_73,walk,yes,A,8,left,B,B,38.875,105.0514,0,0,40.82704,104.8329,0.1283968,-0.09014249,True,38.92447,105.0463,0.01617514,-0.02315806,Right,3.467769,
p04,122,Room_103,walk,yes,B,8,left,A,A,110.7636,24.87559,0,0,108.7949,24.88266,0.23715,-0.09684248,True,110.8339,24.73048,0.01368434,-0.02300273,Left,1.709624,
p04,123,Room_30,walk,no,A,8,left,B,B,68.05145,85.875,0,0,69.44963,84.73407,0.1109757,-0.09116155,True,68.15643,85.93993,0.04000121,-0.05421529,Left,3.616974,
p04,124,Room_86,walk,yes,B,8,left,A,A,32.11823,86.2194,0,0,30.84278,84.87795,0.14231,-0.0242409,True,32.14333,86.22676,0.1745304,0.1998884,Left,4.412387,
p04,125,Room_82,walk,no,A,8,left,A,A,89.2364,89.12441,0,0,91.19662,89.15464,-0.06970555,-0.1032985,True,89.13964,89.16451,-0.0006179217,-0.1408538,Right,4.457969,
p04,126,Room_88,walk,yes,A,8,left,B,B,68.875,8.948557,0,0,67.69133,7.47859,0.01578401,-0.1180938,True,68.83562,8.872135,0.08392079,0.2553375,Left,2.778945,
p04,127,Room_6,walk,no,B,8,left,B,B,49.59908,44.7784,0,0,49.47806,44.71509,0.1476928,0.0951988,True,49.61522,44.61347,0.03124063,-0.0133256,Left,1.277237,
p04,128,Room_44,stay,no,A,9,left,A,A,17.78418,36.60929,0,0,17.79074,36.62434,0.0373408,-0.07228731,True,17.82574,36.64916,0.05096265,-0.0290308,Left,1.289441,
p04,129,Room_31,stay,no,B,9,left,B,B,69.2364,49.12442,0,0,69.25906,49.08501,-0.01813795,-0.2193152,True,69.17213,49.13414,-0.01901093,-0.1224686,Right,2.448313,
p04,130,Room_46,stay,yes,A,9,left,A,A,112.2158,6.609292,0,0,112.2144,6.607366,0.04125087,0.1904958,True,112.1567,6.609654,-0.006485605,-0.01103118,Left,5.871686,
p04,131,Room_10,stay,yes,A,9,left,B,B,29.2194,104.8818,0,0,29.2057,104.8111,0.1247488,-0.06950057,True,29.23137,104.7312,0.1804067,-0.1062172,Left,1.93215,
p04,132,Room_102,stay,yes,A,9,left,A,A,37.88569,67.76955,0,0,37.92318,67.75075,0.1142463,-0.2471187,True,37.90154,67.74686,0.02357088,-0.03540252,Left,1.479697,
p04,133,Room_63,stay,no,B,9,left,B,B,67.88177,17.7806,0,0,67.86047,17.71931,0.2602494,-0.3581638,True,67.98737,17.65165,0.1835876,-0.2998385,Left,6.184232,
p04,134,Room_16,stay,yes,A,9,left,A,A,19.23045,94.88569,0,0,19.42822,94.72739,0.1958486,-0.1138823,True,19.35418,94.94335,0.1133542,-0.1052749,Left,2.094579,
p04,135,Room_91,stay,no,B,9,left,B,A,58.0495,38.13657,0,0,58.04456,38.10107,0.1573763,-0.3280076,True,58.12663,38.19046,-0.03880299,0.02285811,Left,2.759675,
p04,136,Room_35,stay,yes,A,9,left,B,A,71.95049,25.86343,0,0,72.11839,25.88279,0.03439184,0.09379185,True,72.08327,25.81697,0.04042006,-0.06740047,Left,5.388599,
p04,137,Room_26,stay,no,A,9,left,A,B,31.125,55.05145,0,0,31.28019,55.08449,0.1035753,0.09355878,True,31.09672,55.09401,0.002505074,-0.01892907,Right,3.278778,
p04,138,Room_52,stay,yes,B,9,left,A,B,19.23045,94.88569,0,0,19.37932,94.96429,0.03601021,-0.04207841,True,19.3306,94.96702,0.1654438,-0.1550423,Right,2.141444,
p04,139,Room_91,stay,yes,A,9,left,A,B,18.875,8.948557,0,0,18.68575,8.910405,0.04689001,-0.07883594,True,18.89101,8.89813,-0.04220127,-0.05424329,Left,2.420413,
p04,140,Room_1,stay,no,A,9,left,B,A,61.73513,28.44414,0,0,61.65217,28.56489,-0.008835464,-0.1443415,True,61.82615,28.54048,-0.06987903,-0.1029751,Left,1.738307,
p04,141,Room_25,stay,no,A,9,left,A,B,108.875,25.05144,0,0,108.7646,25.08501,0.1013933,-0.09049269,True,108.8456,25.07222,0.1159813,0.01977277,Left,5.175457,
p04,142,Room_30,stay,no,B,9,left,B,A,100.3831,104.7753,0,0,100.5362,104.8017,0.1295866,0.0198605,True,100.4827,104.7902,0.06005473,-0.05075758,Right,3.661151,
p04,143,Room_109,stay,yes,A,9,left,A,B,100.3831,104.7753,0,0,98.42624,105.0681,0.1603677,-0.1241825,True,100.421,104.5984,0.07709941,-0.004380641,Right,3.10948,
p04,144,Room_109,walk,no,B,10,left,B,A,78.875,85.05145,0,0,80.87148,84.77412,0.1539491,0.1047303,True,79.03969,85.14064,0.1208966,-0.06466191,Right,4.55173,
p04,145,Room_87,walk,yes,B,10,left,A,B,27.88177,17.7806,0,0,29.07769,19.19464,0.04470324,-0.1056882,True,27.82744,17.92959,0.06020073,-0.2125785,Right,5.916343,
p04,146,Room_12,walk,yes,A,10,left,B,A,47.88569,116.2305,0,0,49.24948,114.7383,0.07007809,-0.08887824,True,48.07692,116.1832,0.009737151,-0.06663717,Left,1.82524,
p04,147,Room_114,walk,no,B,10,left,A,B,57.88177,107.7806,0,0,59.03645,109.1079,-0.02370447,-0.159272,True,57.88445,107.8518,0.0001466673,-0.03940406,Right,4.661418,
p04,148,Room_105,walk,no,B,10,left,B,A,91.125,38.94856,0,0,89.15488,39.10528,0.1164925,-0.2041446,True,90.97363,38.79109,-0.1877266,-0.5723871,Left,3.669837,
p04,149,Room_38,walk,yes,B,10,left,B,A,97.8857,76.23045,0,0,99.31223,74.72887,0.1630104,-0.02001848,True,97.92452,76.12756,0.05066847,-0.1039552,Right,5.838144,
p04,150,Room_79,walk,yes,B,10,left,A,B,81.95049,95.86343,0,0,80.39539,94.73967,0.1858782,-0.05116859,True,81.98072,95.79404,0.1360615,0.01248914,Left,2.418942,
p04,151,Room_97,walk,no,A,10,left,A,A,78.04046,65.8791,0,0,77.63371,67.82257,0.09402844,-0.1481936,True,78.01733,65.86425,0.1425564,-0.1253435,Right,5.718925,
p04,152,Room_67,walk,yes,A,10,left,B,B,97.78418,117.3907,0,0,98.25438,115.428,0.1724531,-0.07066281,True,97.87892,117.2756,0.04498941,-0.1377735,Left,3.018707,
p04,153,Room_119,walk,yes,B,10,left,B,B,110.3907,89.21582,0,0,108.2952,88.77782,-0.007996836,-0.276572,True,110.2899,89.25011,-0.0434822,-0.1190956,Left,1.52386,
p04,154,Room_90,walk,no,A,10,left,B,B,71.125,48.94856,0,0,68.99876,49.23972,0.02234255,-0.09843209,True,71.04781,48.99821,0.006077291,-0.01908777,Left,1.514421,
p04,155,Room_46,walk,no,B,10,left,B,B,91.44627,55.2764,0,0,92.45023,56.98489,0.1010188,0.03052904,True,91.48547,55.32787,-0.04447773,-0.031892,Right,3.505951,
p04,156,Room_58,walk,no,A,10,left,A,A,90.40092,29.2216,0,0,92.05501,28.24274,-0.08929619,-0.1051306,True,90.40874,29.29771,-0.03198798,0.02701444,Right,1.949727,
p04,157,Room_28,walk,yes,B,10,left,A,A,77.87559,106.2364,0,0,77.92767,108.176,0.09487448,-0.1559467,True,77.7936,106.1629,0.09472347,-0.1226301,Left,1.355429,
p04,158,Room_107,walk,no,B,10,left,A,A,37.7784,117.4009,0,0,38.67688,118.9273,0.1031289,-0.2028751,True,37.65592,117.4388,0.05112007,-0.09724119,Right,3.360822,
