subID,trial,Room,Condition,moveItem,Repeat,Block,ObjectMovedIs,start,end,TarPos_x,TarPos_z,TarRot_x,TarRot_z,Start_SubPos_x,Start_SubPos_z,Start_SubRot_x,Start_SubRot_z,End_SubPos_x,End_SubPos_z,End_SubRot_x,End_SubRot_z,response,RT,
p01_part2,0,Room_72,walk,no,B,8,left,B,A,31.44627,75.2764,0,0,32.41386,76.9962,0.237647,0.1490716,31.4649,75.35236,0.3321801,0.06009699,Left,9.750434,
p01_part2,0,Room_72,walk,no,B,8,left,A,B,22.11823,46.2194,0,0,20.75228,44.96809,0.2960716,0.02257388,22.04485,46.28337,0.2688279,0.19781,Left,9.859761,
p01_part2,1,Room_41,walk,no,A,8,left,A,A,67.87559,76.2364,0,0,68.08106,78.1202,0.1285752,-0.2404283,67.99813,76.27329,0.2830213,-0.2377335,Right,11.42725,
p01_part2,2,Room_76,walk,yes,A,8,left,B,B,48.05145,88.125,0,0,47.9289,86.29547,0.2542584,-0.1944309,48.11289,88.09898,0.17765,-0.3569431,Left,12.44955,
p01_part2,3,Room_84,walk,yes,B,8,left,B,A,98.05145,5.875001,0,0,99.66791,4.858565,0.3413943,-0.07654337,98.16563,5.878966,0.2451779,-0.2137014,Left,11.35126,
p01_part2,4,Room_9,walk,no,A,8,left,A,B,41.1209,5.040457,0,0,39.29155,4.961709,0.2887399,-0.09683718,41.08742,5.198921,0.3387719,0.0729825,Right,10.48257,
p01_part2,5,Room_3,walk,yes,A,8,left,B,B,91.44627,15.2764,0,0,92.22591,17.02465,0.2797995,0.2195926,91.45323,15.37105,0.3011421,0.06629135,Left,8.819357,
p01_part2,6,Room_18,walk,no,B,8,left,B,B,68.2764,98.44627,0,0,67.81963,96.62373,0.1928519,-0.2541497,68.24908,98.41615,0.1432525,-0.3383946,Right,10.24955,
p01_part2,7,Room_96,walk,yes,B,8,left,B,B,110.7695,64.88569,0,0,112.0972,66.26878,0.2496195,0.1382841,110.7743,64.958,0.2852597,0.006011799,Left,8.606627,
p01_part2,8,Room_70,walk,no,B,8,left,B,A,39.60929,79.21582,0,0,38.04245,78.09875,0.09848244,-0.3993177,39.57452,79.16698,-0.01460152,-0.3458597,Right,9.463034,
p01_part2,9,Room_73,walk,yes,A,8,left,A,A,40.7636,104.8756,0,0,38.90187,105.0069,0.2750147,-0.07799732,40.68078,105.0579,0.3856075,0.1071179,Right,10.39542,
p01_part2,10,Room_103,walk,yes,B,8,left,A,A,110.7636,24.87559,0,0,108.8885,25.10441,0.2896304,-0.09531797,110.7253,25.00541,0.3888242,0.1031863,Left,10.36067,
p01_part2,11,Room_30,walk,no,A,8,left,A,B,69.59908,84.7784,0,0,68.06895,85.86788,0.1877547,-0.151068,69.60216,84.92762,0.4009962,-0.03101269,Right,10.54004,
p01_part2,12,Room_86,walk,yes,B,8,left,A,B,32.11823,86.2194,0,0,30.7687,84.92535,0.2566096,5.47654E-06,32.00906,86.30818,0.2643658,0.1814989,Left,10.78384,
p01_part2,13,Room_82,walk,no,A,8,left,B,A,91.125,88.94855,0,0,89.23914,89.14764,0.02876441,-0.2511289,91.06841,88.99783,-0.1215973,-0.3233027,Right,12.27203,
p01_part2,14,Room_88,walk,yes,A,8,left,A,A,67.7784,7.400915,0,0,68.87144,8.980393,0.04424295,-0.235391,67.89231,7.370114,0.293849,-0.2774386,Left,10.84686,
p01_part2,15,Room_6,walk,no,B,8,left,A,B,48.05145,45.875,0,0,48.12186,45.9458,0.2761297,-0.0969209,48.06259,45.97032,0.2838815,-0.1493021,Left,12.22913,
p01_part2,16,Room_44,stay,no,A,9,left,A,B,17.78418,36.60929,0,0,17.85113,36.58967,0.1751494,-0.2022667,17.79676,36.65166,0.2527587,-0.2230058,Left,9.604958,
p01_part2,17,Room_31,stay,no,B,9,left,B,B,69.2364,49.12442,0,0,69.26693,49.12028,0.02792981,-0.2925548,69.1716,49.05515,0.08083673,-0.3714971,Right,12.14007,
p01_part2,18,Room_46,stay,yes,A,9,left,B,A,111.7351,8.444138,0,0,111.7358,8.492386,-0.1514787,-0.2389134,111.6318,8.505778,-0.1106704,-0.2377932,Right,11.14948,
p01_part2,19,Room_10,stay,yes,A,9,left,A,A,27.88569,106.2305,0,0,27.84691,106.2544,0.2037933,-0.134006,27.88417,106.2462,0.1715279,-0.2219604,Right,9.886876,
p01_part2,20,Room_102,stay,yes,A,9,left,B,B,38.04046,65.8791,0,0,38.00022,65.9041,0.2084289,-0.1635535,38.14902,65.92136,0.2456984,-0.1172516,Left,9.275303,
p01_part2,21,Room_63,stay,no,B,9,left,A,B,69.23045,19.11431,0,0,69.23306,19.1874,0.057003,-0.2741707,69.30038,19.11703,0.04563926,-0.3815331,Right,13.11542,
p01_part2,22,Room_16,stay,yes,A,9,left,B,B,21.1209,95.04046,0,0,21.1324,95.03992,0.3313406,0.0738188,21.11093,95.25671,0.404172,0.102055,Left,8.839984,
p01_part2,23,Room_91,stay,no,B,9,left,A,B,59.60929,39.21582,0,0,59.55472,39.25194,-0.03065379,-0.2462109,59.5714,39.16748,-0.07051239,-0.2170182,Right,11.59459,
p01_part2,24,Room_35,stay,yes,A,9,left,A,A,70.39071,24.78418,0,0,70.42775,24.70002,0.202837,0.003528065,70.53019,24.88877,0.3889231,-0.1173883,Left,11.11709,
p01_part2,25,Room_26,stay,no,A,9,left,A,A,31.125,55.05145,0,0,31.23175,55.01458,0.2958154,0.04931952,31.08732,55.12239,0.3890319,0.04156804,Right,11.00695,
p01_part2,26,Room_52,stay,yes,B,9,left,B,A,21.1209,95.04046,0,0,21.12185,95.09903,0.2942992,0.005582376,21.11031,95.16852,0.3134486,0.09007347,Right,9.951712,
p01_part2,27,Room_91,stay,yes,A,9,left,B,A,17.7784,7.400915,0,0,17.63033,7.382566,0.1142544,-0.2552553,17.85195,7.377735,0.2506152,-0.2649513,Left,10.34827,
p01_part2,28,Room_1,stay,no,A,9,left,A,A,62.21582,26.60929,0,0,62.30424,26.62015,0.1935038,0.1827672,62.07741,26.63841,0.3597587,0.2132941,Left,9.850491,
p01_part2,29,Room_25,stay,no,A,9,left,B,A,110.7636,24.87559,0,0,110.7611,24.94283,0.2620352,0.02465254,110.7977,24.98838,0.362124,0.06254478,Left,9.731803,
p01_part2,30,Room_30,stay,no,B,9,left,B,B,100.3831,104.7753,0,0,100.4304,104.8213,0.3285077,0.01976521,100.4276,104.9305,0.267371,0.08172864,Right,9.784078,
p01_part2,31,Room_109,stay,yes,A,9,left,B,A,98.55373,105.2764,0,0,100.4085,104.7439,0.4117751,-0.03599334,98.61524,105.3449,0.2394362,-0.1419973,Right,11.46174,
p01_part2,32,Room_109,walk,no,B,10,left,B,A,78.875,85.05145,0,0,80.83575,84.99521,0.2743267,0.00736817,78.93759,85.18537,0.2746685,-0.101787,Right,9.751358,
p01_part2,33,Room_87,walk,yes,B,10,left,B,B,29.23045,19.11431,0,0,27.91555,17.77152,0.1129507,-0.2579402,29.26363,19.09712,-0.002144939,-0.3797048,Left,10.96397,
p01_part2,34,Room_12,walk,yes,A,10,left,A,A,49.2194,114.8818,0,0,47.91777,116.2426,0.2083344,-0.2312638,49.33792,115.0004,0.3355133,-0.1128536,Left,8.833589,
p01_part2,35,Room_114,walk,no,B,10,left,B,A,59.23045,109.1143,0,0,57.86289,107.7372,0.1117141,-0.22597,59.28595,109.0873,0.03178784,-0.3297265,Left,9.173666,
p01_part2,36,Room_105,walk,no,B,10,left,B,A,91.125,38.94856,0,0,89.21887,39.06177,0.04390066,-0.3467467,91.01446,38.91719,-0.1619972,-0.3297482,Right,11.96018,
p01_part2,37,Room_38,walk,yes,B,10,left,B,B,97.8857,76.23045,0,0,99.18388,74.92847,0.294844,-0.01738006,97.98851,76.28539,0.2750424,-0.254222,Right,11.92706,
p01_part2,38,Room_79,walk,yes,B,10,left,A,A,81.95049,95.86343,0,0,80.47074,94.91364,0.3436875,-0.01527845,81.69701,95.80209,0.4306954,0.1371664,Left,9.573249,
p01_part2,39,Room_97,walk,no,A,10,left,A,A,78.04046,65.8791,0,0,77.9369,67.72805,0.2024688,-0.2932504,78.12415,66.00863,0.3159421,-0.1321013,Right,10.48525,
p01_part2,40,Room_67,walk,yes,A,10,left,A,B,98.26487,115.5559,0,0,97.81603,117.4307,0.2061787,-0.2873852,98.31963,115.6341,0.336196,-0.1067133,Right,10.53925,
p01_part2,41,Room_119,walk,yes,B,10,left,A,B,108.5559,88.73513,0,0,110.3249,89.12257,-0.0813083,-0.4276333,108.6192,88.65987,0.1565382,-0.342299,Left,11.21651,
p01_part2,42,Room_90,walk,no,A,10,left,B,B,71.125,48.94856,0,0,69.24489,49.09891,0.0206017,-0.3152374,71.0314,48.9709,-0.2007752,-0.3029184,Left,9.417614,
p01_part2,43,Room_46,walk,no,B,10,left,A,B,92.25746,56.99095,0,0,91.41799,55.3853,0.3139027,0.08537364,92.12634,57.04557,0.2706147,0.2547466,Left,9.443159,
p01_part2,44,Room_58,walk,no,A,10,left,B,B,91.94855,28.125,0,0,90.39749,29.10089,-0.08690751,-0.2608888,91.83419,28.15109,0.2430314,0.2687304,Right,10.77439,
p01_part2,45,Room_28,walk,yes,B,10,left,A,B,77.87559,106.2364,0,0,78.04127,108.1012,0.1072777,-0.254149,78.05011,106.2861,0.3457166,-0.1725098,Left,11.83882,
p01_part2,46,Room_107,walk,no,B,10,left,A,A,37.7784,117.4009,0,0,38.87211,118.9564,0.09370803,-0.3148662,37.85353,117.4013,0.2808791,-0.2954271,Right,9.917336,
