subID,trial,Room,Condition,moveItem,Repeat,Block,ObjectMovedIs,start,end,TarPos_x,TarPos_z,TarRot_x,TarRot_z,Start_SubPos_x,Start_SubPos_z,Start_SubRot_x,Start_SubRot_z,End_SubPos_x,End_SubPos_z,End_SubRot_x,End_SubRot_z,response,RT,
TestB,0,Room_121,stay,yes,A,1,left,A,A,32.25,133.05,0,0,32.09835,133.05,0.1714569,0.1740709,32.13016,132.9575,0.1874394,0.1096513,Right,8.885768,
TestB,0,Room_121,stay,yes,A,1,left,A,B,61.94855,131.925,0,0,61.84501,131.9527,0.1337182,0.02673295,61.99289,131.8565,0.07216382,0.0007412477,No response,N/A,
TestB,1,Room_122,stay,no,A,1,left,B,B,98.26487,131.6059,0,0,98.3961,131.7268,0.1740685,-0.106347,98.43215,131.6559,0.2813092,-0.1732637,Left,10.19755,
TestB,2,Room_123,stay,no,A,1,left,B,A,110.7806,135.1682,0,0,110.7536,135.0037,-0.1072834,-0.2683581,110.7057,135.0229,-0.04158392,-0.1447045,Right,9.430867,
TestB,3,Room_124,stay,yes,A,1,left,A,B,67.88569,133.8195,0,0,68.05015,133.6608,0.07733712,-0.2107615,68.07253,133.8048,0.1295549,-0.3005355,Left,9.378492,
TestB,4,Room_125,stay,no,A,1,left,A,B,22.11823,132.2694,0,0,20.83928,130.9949,0.2778827,-0.01758491,21.91069,132.3541,0.2322251,0.1366845,Right,12.35854,
TestB,5,Room_126,walk,yes,A,2,left,B,A,38.875,134.9986,0,0,37.93676,133.3676,0.05838993,-0.1168199,38.96287,134.8188,-0.0120231,-0.2521568,Left,9.274757,
TestB,6,Room_127,walk,no,A,2,left,A,A,49.2194,130.9318,0,0,48.06253,132.2398,0.1721027,-0.1819666,49.28741,131.0393,0.4819243,-0.07734624,Right,12.83575,
TestB,7,Room_128,walk,yes,A,2,left,B,B,92.11431,132.2805,0,0,91.76119,134.1294,0.1960537,0.1261481,91.9219,132.3272,0.1123827,-0.0004447799,Left,10.72814,
TestB,8,Room_129,walk,no,A,2,left,A,B,79.2194,130.9318,0,0,78.129,132.3576,0.2169025,-0.1655562,79.23736,131.0825,0.2432608,-0.07430119,Left,9.478173,
TestB,0,Room_121,stay,yes,A,1,left,A,A,32.25,133.05,0,0,32.20847,133.0401,0.231903,0.2646866,31.83153,133.6299,-0.1036304,-0.52972,No response,N/A,
TestB,0,Room_121,stay,yes,A,1,left,A,B,61.94855,131.925,0,0,61.91835,131.9254,0.2748348,0.1569829,61.86173,132.0915,0.3464832,0.3074641,Right,11.68572,
TestB,1,Room_122,stay,no,A,1,left,B,B,98.26487,131.6059,0,0,98.34628,131.6618,0.284139,-0.1943458,98.30396,131.7433,0.3784348,-0.07766819,Left,11.78436,
TestB,2,Room_123,stay,no,A,1,left,B,A,110.7806,135.1682,0,0,110.7933,135.1558,-0.0857933,-0.2957397,110.8113,135.056,-0.128136,-0.3290016,Right,9.207433,
TestB,3,Room_124,stay,yes,A,1,left,A,B,67.88569,133.8195,0,0,67.9849,133.8241,0.2142193,-0.2203738,67.99828,133.8547,0.144058,-0.2729767,Left,13.15911,
TestB,4,Room_125,stay,no,A,1,left,A,B,22.11823,132.2694,0,0,20.73536,130.9916,0.3279403,0.06541518,22.02008,132.2445,0.2450285,0.2149501,Right,14.46823,
TestB,5,Room_126,walk,yes,A,2,left,B,A,38.875,134.9986,0,0,37.90373,133.3794,0.2062741,-0.2341712,38.98839,134.8645,0.04662966,-0.3301538,Left,11.78477,
TestB,6,Room_127,walk,no,A,2,left,A,A,49.2194,130.9318,0,0,47.90107,132.3046,0.2981333,-0.1190581,49.21768,131.0548,0.4869452,-0.2323928,Right,11.67353,
TestB,7,Room_128,walk,yes,A,2,left,B,B,92.11431,132.2805,0,0,91.86036,134.1612,0.1708341,0.2515512,92.04125,132.2859,0.2431334,0.1311914,Left,11.29382,
TestB,8,Room_129,walk,no,A,2,left,A,B,79.2194,130.9318,0,0,77.93977,132.3028,0.2757757,-0.1733088,79.28905,131.0655,0.405387,-0.05206299,Right,13.63872,
