Timestamp,subID,trial,Room,Condition,moveItem,Repeat,Block,ObjectMovedIs,start,end,TargetObject,TarPos_x,TarPos_z,Start_SubPos_x,Start_SubPos_z,Delay_time,TargetReached,End_SubPos_x,End_SubPos_z,response,RT,
05/31/2024 1:27 PM,y01b,0,Room_108,stay,yes,B,1,left,A,B,PoolTable_01,89.23045,104.8857,90.65604,107.3529,50.8455,True,89.3315,105.0003,Right,2.554892,
05/31/2024 1:28 PM,y01b,1,Room_4,stay,no,B,1,left,A,B,None,49.23045,4.885691,49.32362,5.078278,8.915647,True,49.14474,5.051499,Right,2.650252,
05/31/2024 1:29 PM,y01b,2,Room_25,stay,yes,B,1,left,B,A,Laptop,61.1209,25.04046,61.07625,25.24457,10.26462,True,61.13486,25.16234,Left,2.672981,
05/31/2024 1:29 PM,y01b,3,Room_110,stay,no,B,1,left,A,B,None,109.2305,104.8857,109.1999,105.07,8.935333,True,109.2218,105.206,Right,1.319628,
05/31/2024 1:30 PM,y01b,4,Room_117,stay,no,B,1,left,B,A,None,81.1209,115.0405,81.08656,115.2564,7.55778,True,81.19678,115.3018,Left,2.530601,
05/31/2024 1:30 PM,y01b,5,Room_87,stay,yes,B,1,left,B,A,Sausage in dough,81.1209,85.04046,80.93475,85.24267,6.926632,True,81.22704,85.26351,Left,1.335136,
05/31/2024 1:30 PM,y01b,6,Room_45,stay,no,B,1,left,A,B,None,59.23045,44.88569,59.19453,45.08999,7.840391,True,59.20562,45.07174,Right,1.079069,
05/31/2024 1:31 PM,y01b,7,Room_85,stay,yes,B,1,left,B,A,Pita,61.1209,85.04046,61.07756,85.23757,7.563418,True,61.11407,85.26949,Left,2.098595,
05/31/2024 1:31 PM,y01b,8,Room_2,stay,no,B,1,left,B,A,None,31.1209,5.040457,31.02011,5.200744,8.424047,True,31.15571,5.296107,Right,1.194888,
05/31/2024 1:32 PM,y01b,9,Room_68,stay,yes,B,1,left,B,A,Traffic cone 1,91.1209,65.04045,90.91848,65.23447,8.002693,True,91.17071,65.09718,Right,1.24334,
05/31/2024 1:32 PM,y01b,10,Room_58,stay,no,B,1,left,B,A,None,91.1209,55.04045,91.11817,55.10675,10.00101,True,91.19646,55.19501,Right,2.433861,
05/31/2024 1:33 PM,y01b,11,Room_99,stay,no,B,1,left,B,A,None,101.1209,95.04046,100.9917,95.2071,8.799836,True,101.2113,95.18874,Right,1.287921,
05/31/2024 1:33 PM,y01b,12,Room_115,stay,yes,B,1,left,A,B,Tent_01,59.23045,114.8857,59.19333,115.0501,8.510255,True,59.15773,115.0808,Left,2.30838,
05/31/2024 1:34 PM,y01b,13,Room_78,stay,yes,B,1,left,A,B,Cone,89.23045,74.88569,89.28612,75.03455,7.965828,True,89.23216,75.07741,Left,2.762832,
05/31/2024 1:34 PM,y01b,14,Room_28,stay,no,B,1,left,A,B,None,89.23045,24.88569,89.3035,25.03312,8.181617,True,89.19289,25.10127,Right,2.098507,
05/31/2024 1:35 PM,y01b,15,Room_44,stay,yes,B,1,left,A,B,Warmer,49.23045,44.88569,49.2672,45.01296,8.881421,True,49.24998,45.07551,Right,3.864257,
05/31/2024 1:35 PM,y01b,16,Room_74,walk,no,B,2,left,A,B,None,51.12089,75.04046,49.31682,75.05797,5.402901,True,51.07415,75.1368,Left,1.963004,
05/31/2024 1:36 PM,y01b,17,Room_114,walk,yes,B,2,left,A,B,Lychee,51.1209,115.0405,49.20568,114.8506,6.181556,True,51.13046,115.0784,Right,3.719909,
05/31/2024 1:36 PM,y01b,18,Room_88,walk,yes,B,2,left,A,B,Fig,91.1209,85.04046,89.19505,84.93211,7.701347,True,91.06857,85.13544,Left,2.464605,
05/31/2024 1:37 PM,y01b,19,Room_116,walk,yes,B,2,left,B,A,GrandPiano_01,69.23045,114.8857,71.00124,115.0316,6.054926,True,69.14075,115.1475,Left,4.138542,
05/31/2024 1:37 PM,y01b,20,Room_10,walk,no,B,2,left,A,B,None,111.1209,5.040458,109.2898,4.976545,6.302773,True,111.141,5.174605,Right,1.333889,
05/31/2024 1:38 PM,y01b,21,Room_59,walk,no,B,2,left,B,A,None,99.23045,54.88569,101.0082,55.08458,6.372471,True,99.13879,55.00248,Right,2.411556,
05/31/2024 1:38 PM,y01b,22,Room_47,walk,no,B,2,left,A,B,None,81.1209,45.04046,79.25443,44.93066,5.784303,True,81.12386,45.17868,Right,2.714632,
05/31/2024 1:38 PM,y01b,23,Room_21,walk,yes,B,2,left,B,A,SMGP_PRE_Jam_1024,19.23046,24.88269,21.0296,25.0997,5.02518,True,19.22947,24.93248,Left,3.710169,
05/31/2024 1:39 PM,y01b,24,Room_113,walk,no,B,2,left,A,B,None,41.1209,115.0405,39.28939,114.964,5.868937,True,41.11385,115.1458,Right,2.004462,
05/31/2024 1:39 PM,y01b,25,Room_43,walk,yes,B,2,left,B,A,Table-1,39.23045,44.88569,41.02288,45.04561,5.354473,True,39.17025,45.0776,Left,2.086238,
05/31/2024 1:40 PM,y01b,26,Room_71,walk,no,B,2,left,B,A,None,19.23046,74.88569,21.16719,74.97659,5.555888,True,19.15991,75.05174,Right,1.338218,
05/31/2024 1:40 PM,y01b,27,Room_62,walk,yes,B,2,left,B,A,tank,29.23045,64.88569,31.15838,65.17437,5.381667,True,29.19461,65.06967,Left,1.894242,
05/31/2024 1:41 PM,y01b,28,Room_83,walk,no,B,2,left,B,A,None,39.23045,84.8857,41.1309,85.11089,4.576974,True,39.25478,85.00676,Right,2.192918,
05/31/2024 1:41 PM,y01b,29,Room_112,walk,no,B,2,left,A,B,None,31.1209,115.0405,29.22282,114.9539,4.463847,True,31.1631,115.1818,Right,1.609943,
05/31/2024 1:42 PM,y01b,30,Room_23,walk,yes,B,2,left,B,A,plant5 Variant,39.23045,24.88569,41.08797,24.98637,4.673987,True,39.14901,25.03436,Left,1.715236,
05/31/2024 1:42 PM,y01b,31,Room_16,walk,yes,B,2,left,A,B,RFAIPP_Chair_6,71.1209,15.04046,69.32605,14.85638,5.290516,True,71.08927,15.13017,Left,3.371703,
05/31/2024 1:43 PM,y01b,32,Room_49,stay,yes,B,3,left,A,B,SMGP_PRE_Sugar_1024,99.23045,44.88569,99.26057,44.90805,10.80451,True,99.0976,44.95655,Left,3.001257,
05/31/2024 1:43 PM,y01b,33,Room_98,stay,yes,B,3,left,A,B,Beet,89.22392,94.90723,89.23623,94.99849,7.258962,True,89.13531,95.10529,Left,3.403808,
05/31/2024 1:43 PM,y01b,34,Room_84,stay,yes,B,3,left,A,B,Carambola,49.23045,84.8857,49.09801,85.02004,7.575262,True,49.19593,85.11491,Left,2.229785,
05/31/2024 1:47 PM,y01b,35,Room_14,stay,no,B,3,left,B,A,None,51.1209,15.04045,51.04861,15.17852,6.541884,True,51.0988,15.18015,Right,1.17182,
05/31/2024 1:47 PM,y01b,36,Room_81,stay,yes,B,3,left,A,B,Potato on a stick,19.23045,84.88569,19.25565,85.04762,7.453709,True,19.19675,85.07922,Right,1.880812,
05/31/2024 1:48 PM,y01b,37,Room_7,stay,no,B,3,left,B,A,None,81.1209,5.040456,81.13017,5.160448,6.590205,True,81.18725,5.182444,Right,1.213902,
05/31/2024 1:48 PM,y01b,38,Room_41,stay,no,B,3,left,A,B,None,19.23046,44.88569,19.20021,45.01608,7.604334,True,19.24175,45.18471,Right,3.024029,
05/31/2024 1:49 PM,y01b,39,Room_76,stay,yes,B,3,left,B,A,pot5,71.1209,75.04046,71.09418,75.19196,7.465787,True,71.14027,75.23013,Left,2.051925,
05/31/2024 1:49 PM,y01b,40,Room_60,stay,no,B,3,left,A,B,None,109.2305,54.88569,109.1688,55.02112,6.815302,True,109.2685,55.1417,Right,2.480105,
05/31/2024 1:49 PM,y01b,41,Room_111,stay,no,B,3,left,B,A,None,21.12089,115.0405,21.10036,115.14,7.734437,True,21.11248,115.1934,Right,1.795828,
05/31/2024 1:50 PM,y01b,42,Room_119,stay,no,B,3,left,B,A,None,101.1209,115.0405,101.088,115.1523,7.167339,True,101.0579,115.1667,Right,2.320418,
05/31/2024 1:50 PM,y01b,43,Room_101,stay,yes,B,3,left,B,A,Corn,21.12089,105.0405,21.12133,105.1708,7.497105,True,21.1248,105.205,Left,2.086201,
05/31/2024 1:51 PM,y01b,44,Room_90,stay,no,B,3,left,B,A,None,111.1209,85.04046,111.1087,85.19437,7.102616,True,111.1739,85.22156,Right,2.552452,
05/31/2024 1:51 PM,y01b,45,Room_102,stay,no,B,3,left,A,B,None,29.23046,104.8857,29.16107,105.0069,6.312374,True,29.30971,105.0771,Right,1.945338,
05/31/2024 1:52 PM,y01b,46,Room_97,stay,yes,B,3,left,B,A,Drum_01,81.1209,95.04046,81.07362,95.17376,7.245425,True,81.09023,95.18378,Left,1.573941,
05/31/2024 1:52 PM,y01b,47,Room_118,stay,yes,B,3,left,A,B,WateringCan_01,89.23045,114.8857,89.15453,114.9991,6.615491,True,89.32135,115.0313,Left,1.603872,
05/31/2024 1:52 PM,y01b,48,Room_13,walk,yes,B,4,left,A,B,SHEEP,40.7636,14.87559,38.88266,15.16165,4.109354,True,40.66517,14.89618,Right,3.35106,
05/31/2024 1:53 PM,y01b,49,Room_75,walk,no,B,4,left,A,B,None,61.1209,75.04046,59.22272,74.92791,4.671949,True,60.94937,75.08215,Right,1.507124,
05/31/2024 1:53 PM,y01b,50,Room_31,walk,yes,B,4,left,B,A,Lamp,19.23046,34.88569,21.04922,35.12934,4.416511,True,19.22231,35.06828,Right,3.716828,
05/31/2024 1:54 PM,y01b,51,Room_73,walk,no,B,4,left,A,B,None,41.1209,75.04046,39.28823,74.9549,4.226593,True,41.02883,75.08836,Left,2.374254,
05/31/2024 1:54 PM,y01b,52,Room_89,walk,no,B,4,left,B,A,None,99.23045,84.8857,101.0752,85.14668,4.864532,True,99.2972,85.0297,Right,2.410532,
05/31/2024 1:55 PM,y01b,53,Room_95,walk,no,B,4,left,B,A,None,59.23045,94.8857,61.13292,95.13181,4.617572,True,59.36504,94.97604,Right,1.129771,
05/31/2024 1:55 PM,y01b,54,Room_104,walk,yes,B,4,left,A,B,CongaDrum_01,51.1209,105.0405,49.25882,104.9282,4.226779,True,51.10492,105.1172,Right,1.976093,
05/31/2024 1:55 PM,y01b,55,Room_72,walk,no,B,4,left,B,A,None,29.23045,74.88569,31.03908,75.1032,4.363846,True,29.26564,75.0648,Right,1.695428,
05/31/2024 1:56 PM,y01b,56,Room_103,walk,yes,B,4,left,B,A,Longhorn_cattle_v1,39.23045,104.8857,41.10106,105.1069,4.631068,True,39.34668,105.0658,Left,2.349611,
05/31/2024 1:56 PM,y01b,57,Room_56,walk,no,B,4,left,B,A,None,69.23045,54.88569,71.17468,55.03304,4.511282,True,69.24818,55.16311,Right,1.28197,
05/31/2024 1:57 PM,y01b,58,Room_29,walk,yes,B,4,left,B,A,Music column-1,101.9486,25.875,102.148,27.80248,4.803998,True,101.8387,26.00514,Left,3.248117,
05/31/2024 1:57 PM,y01b,59,Room_57,walk,no,B,4,left,B,A,None,79.23045,54.88569,81.08774,55.02262,4.736892,True,79.17458,55.07613,Right,2.118665,
05/31/2024 1:57 PM,y01b,60,Room_52,walk,yes,B,4,left,A,B,plant2 Variant,31.1209,55.04045,29.2483,54.89417,4.466724,True,31.05555,55.11864,Left,2.356699,
05/31/2024 1:58 PM,y01b,61,Room_22,walk,yes,B,4,left,A,B,snack_01,31.1209,25.04046,29.23133,24.98578,4.707181,True,31.06731,25.0676,Left,2.508192,
05/31/2024 1:58 PM,y01b,62,Room_94,walk,no,B,4,left,A,B,None,51.1209,95.04045,49.21746,94.97196,4.092649,True,51.16866,95.02522,Right,2.104481,
05/31/2024 1:59 PM,y01b,63,Room_18,walk,yes,B,4,left,A,B,FFP_PRE_CLE_01_Lettuce_1024,91.1209,15.04046,89.23716,14.93652,4.565453,True,91.07328,15.07081,Left,3.177468,
