Timestamp,subID,trial,Room,Condition,moveItem,Repeat,Block,ObjectMovedIs,start,end,TargetObject,TarPos_x,TarPos_z,Start_SubPos_x,Start_SubPos_z,Delay_time,TargetReached,End_SubPos_x,End_SubPos_z,response,RT,
05/27/2024 12:40 PM,pilot03_1,0,Room_1,stay,yes,A,1,left,B,B,SMGP_pre_Soda_bottle_01_1024,21.1209,5.040455,21.11042,5.014258,20.84167,True,21.09261,5.050679,Left,3.98631,
05/27/2024 12:41 PM,pilot03_1,1,Room_2,stay,yes,A,1,left,B,B,pineapple,31.1209,5.040457,31.09238,5.048113,8.917838,True,31.11768,5.181632,Left,3.247036,
05/27/2024 12:41 PM,pilot03_1,2,Room_3,stay,yes,A,1,left,A,A,bomb,39.23045,4.88569,39.2389,4.951035,7.433042,True,39.27921,5.008393,Left,1.77791,
05/27/2024 12:42 PM,pilot03_1,3,Room_4,stay,no,A,1,left,B,B,None,51.1209,5.040456,51.08665,5.09413,7.05269,True,51.10284,5.116669,Right,2.792449,
05/27/2024 12:42 PM,pilot03_1,4,Room_5,stay,no,A,1,left,A,A,None,59.23045,4.885691,59.15568,4.956043,6.01366,True,59.17876,5.040574,Right,1.083532,
05/27/2024 12:43 PM,pilot03_1,5,Room_6,stay,yes,A,1,left,A,A,frenchFries,69.23045,4.885692,69.18869,4.942046,6.358297,True,69.18029,4.994988,Left,1.330257,
05/27/2024 12:43 PM,pilot03_1,6,Room_7,stay,yes,A,1,left,B,B,coconut,81.1209,5.040456,81.07403,5.113517,9.583358,True,81.14315,5.13035,Left,1.145272,
05/27/2024 12:43 PM,pilot03_1,7,Room_8,stay,yes,A,1,left,A,A,burger,89.23045,4.885692,89.18651,4.930495,12.34293,True,89.26225,4.944621,Left,3.675452,
05/27/2024 12:44 PM,pilot03_1,8,Room_9,stay,no,A,1,left,A,B,None,99.23045,4.885693,99.24213,4.943287,6.612939,True,99.1441,5.020464,Right,1.554899,
05/27/2024 12:44 PM,pilot03_1,9,Room_10,stay,yes,A,1,left,B,A,FFP_PRE_CLE_01_Milk_1024,111.1209,5.040458,111.0576,5.120083,8.883661,True,111.165,5.153615,Left,1.390063,
05/27/2024 12:45 PM,pilot03_1,10,Room_11,stay,no,A,1,left,A,B,None,19.23046,14.88569,19.17031,14.97501,6.917502,True,19.10936,14.99955,Right,1.372028,
05/27/2024 12:45 PM,pilot03_1,11,Room_12,stay,no,A,1,left,B,A,None,31.1209,15.04046,31.06846,15.09343,6.122555,True,31.08669,15.18967,Right,3.991306,
05/27/2024 12:45 PM,pilot03_1,12,Room_13,stay,yes,A,1,left,A,B,Kettle_Prefab,38.875,15.05144,38.81157,15.1307,6.038435,True,38.84322,15.18601,Left,1.459928,
05/27/2024 12:46 PM,pilot03_1,13,Room_14,stay,no,A,1,left,B,A,None,51.1209,15.04045,51.07166,15.08518,9.317483,True,51.14283,15.14859,Right,1.620307,
05/27/2024 12:46 PM,pilot03_1,14,Room_15,stay,no,A,1,left,B,A,None,61.1209,15.04046,61.12553,15.09741,9.722036,True,61.18338,15.14095,Right,1.714594,
05/27/2024 12:47 PM,pilot03_1,15,Room_16,stay,no,A,1,left,A,B,None,69.23045,14.88569,69.17767,14.95973,5.61166,True,69.10514,15.08074,Right,3.535374,
05/27/2024 12:47 PM,pilot03_1,16,Room_17,walk,no,A,2,left,B,B,None,79.23045,14.88569,81.09193,15.07573,6.164259,True,79.2852,15.00052,Right,3.38714,
05/27/2024 12:48 PM,pilot03_1,17,Room_18,walk,yes,A,2,left,A,A,FFP_PRE_CLE_01_Grapes_1024,91.1209,15.04046,89.22002,14.93203,7.191515,True,91.06519,14.98645,Left,2.5668,
05/27/2024 12:48 PM,pilot03_1,18,Room_19,walk,yes,A,2,left,A,A,FFP_PRE_CLE_01_Potato_1024,101.1209,15.04045,99.22584,14.89893,5.153399,True,101.3069,15.13674,Left,1.779858,
05/27/2024 12:49 PM,pilot03_1,19,Room_20,walk,yes,A,2,left,B,B,RFAIPP_Lamp,109.2305,14.88569,111.0864,15.00413,4.915884,True,109.2228,15.02047,Right,5.374031,
05/27/2024 12:49 PM,pilot03_1,20,Room_21,walk,no,A,2,left,B,B,None,19.23046,24.88269,21.10569,25.05356,6.00558,True,19.25953,24.92897,Right,1.464937,
05/27/2024 12:49 PM,pilot03_1,21,Room_22,walk,yes,A,2,left,B,B,cup_03,29.23046,24.88569,31.07238,25.0349,4.337589,True,29.11109,24.95826,Right,2.978971,
05/27/2024 12:50 PM,pilot03_1,22,Room_23,walk,yes,A,2,left,A,A,Books,41.1209,25.04046,39.20177,24.86913,4.785696,True,41.16757,25.11465,Left,2.332011,
05/27/2024 12:50 PM,pilot03_1,23,Room_24,walk,no,A,2,left,A,A,None,51.1209,25.04046,49.18029,24.82254,5.254193,True,51.23495,25.0834,Right,1.58209,
05/27/2024 12:50 PM,pilot03_1,24,Room_25,walk,no,A,2,left,B,A,None,59.23045,24.88569,61.11576,24.97953,5.883478,True,59.14611,24.99454,Right,1.418672,
05/27/2024 12:51 PM,pilot03_1,25,Room_26,walk,no,A,2,left,B,A,None,69.23045,24.88569,71.10239,25.02127,5.052791,True,69.11718,24.97543,Left,2.279283,
05/27/2024 12:51 PM,pilot03_1,26,Room_27,walk,yes,A,2,left,A,B,Ball-1,81.1209,25.04046,79.1859,24.87329,5.449286,True,81.1914,25.10183,Left,1.195721,
05/27/2024 12:52 PM,pilot03_1,27,Room_28,walk,no,A,2,left,B,A,None,89.23045,24.88569,91.06323,24.98793,4.699784,True,89.12547,24.91309,Left,3.831571,
05/27/2024 12:52 PM,pilot03_1,28,Room_29,walk,no,A,2,left,A,B,None,102.1244,27.7636,101.9359,25.87428,5.095109,True,102.0347,27.73498,Right,1.384245,
05/27/2024 12:52 PM,pilot03_1,29,Room_30,walk,no,A,2,left,B,A,None,109.2305,24.88569,111.1179,24.9508,5.214415,True,109.24,24.96307,Right,1.834862,
05/27/2024 12:53 PM,pilot03_1,30,Room_31,walk,yes,A,2,left,A,B,Chair-1,21.1209,35.04045,19.20708,34.86177,5.302901,True,21.18303,35.09756,Left,1.238879,
05/27/2024 12:53 PM,pilot03_1,31,Room_32,walk,yes,A,2,left,A,B,Cup-1,31.1209,35.04045,29.14235,34.85707,4.993018,True,31.17817,35.0514,Right,1.78628,
05/27/2024 12:54 PM,pilot03_1,32,Room_33,stay,yes,A,3,left,B,B,Basketball,41.1209,35.04045,41.12565,34.96654,6.371665,True,41.14646,35.11569,Left,1.586776,
05/27/2024 12:54 PM,pilot03_1,33,Room_34,stay,yes,A,3,left,A,A,Dumbbell-2,49.23045,34.88569,49.20663,34.93084,5.93118,True,49.10627,35.01947,Left,0.97236,
05/27/2024 12:55 PM,pilot03_1,34,Room_35,stay,no,A,3,left,B,B,None,61.1209,35.04045,61.08647,35.09865,6.027844,True,61.19813,35.18553,Right,1.106529,
05/27/2024 12:55 PM,pilot03_1,35,Room_36,stay,yes,A,3,left,B,B,Cooler bag,71.1209,35.04046,71.20954,35.05124,5.952687,True,71.11234,35.18668,Left,0.9720973,
05/27/2024 12:55 PM,pilot03_1,36,Room_37,stay,no,A,3,left,A,A,None,79.23045,34.88569,79.20347,34.91616,5.723615,True,79.09846,35.05068,Right,1.023758,
05/27/2024 12:56 PM,pilot03_1,37,Room_38,stay,no,A,3,left,A,A,None,89.23045,34.88569,89.21806,34.90904,6.2857,True,89.1121,35.00673,Right,0.9034968,
05/27/2024 12:56 PM,pilot03_1,38,Room_39,stay,no,A,3,left,B,B,None,101.1209,35.04045,101.0736,35.01285,6.18643,True,101.1555,35.17553,Right,0.8099782,
05/27/2024 12:56 PM,pilot03_1,39,Room_40,stay,yes,A,3,left,A,A,Beer,109.2305,34.88569,109.1579,34.93118,6.013268,True,109.0558,35.04675,Right,0.7739922,
05/27/2024 12:57 PM,pilot03_1,40,Room_41,stay,no,A,3,left,A,B,None,19.23046,44.88569,19.13782,44.92525,6.451903,True,19.10722,45.04628,Right,1.282355,
05/27/2024 12:57 PM,pilot03_1,41,Room_42,stay,yes,A,3,left,B,A,Flashlight-2,31.12089,45.04045,31.04926,45.10182,7.418184,True,31.16747,45.12864,Left,1.253543,
05/27/2024 12:58 PM,pilot03_1,42,Room_43,stay,no,A,3,left,B,A,None,41.1209,45.04045,41.13339,45.08388,6.666868,True,41.09271,45.10558,Right,3.262098,
05/27/2024 12:58 PM,pilot03_1,43,Room_44,stay,yes,A,3,left,A,B,Pan-2,49.23045,44.88569,49.18383,44.94588,6.659205,True,49.134,44.99143,Left,1.736584,
05/27/2024 12:59 PM,pilot03_1,44,Room_45,stay,yes,A,3,left,B,A,Golf ball,61.1209,45.04045,61.03835,45.10209,6.578535,True,61.18648,45.18106,Left,1.587912,
05/27/2024 12:59 PM,pilot03_1,45,Room_46,stay,no,A,3,left,A,B,None,69.23045,44.88569,69.17605,44.9402,7.039901,True,69.12,44.93644,Right,1.303399,
05/27/2024 1:00 PM,pilot03_1,46,Room_47,stay,yes,A,3,left,A,B,SMGP_PRE_Pudding_1024,79.23045,44.88569,79.16964,44.88081,7.11517,True,79.18213,44.96366,Left,1.105959,
05/27/2024 1:00 PM,pilot03_1,47,Room_48,stay,no,A,3,left,B,A,None,91.1209,45.04045,91.09731,45.06139,6.520977,True,91.17649,45.07413,Left,2.424316,
05/27/2024 1:01 PM,pilot03_1,48,Room_49,walk,no,A,4,left,B,B,None,99.23045,44.88569,101.1757,45.0401,5.400968,True,99.15031,44.94699,Right,2.191746,
05/27/2024 1:01 PM,pilot03_1,49,Room_50,walk,yes,A,4,left,A,A,plant4 Variant,111.1209,45.04045,109.2539,44.85172,5.543437,True,111.1974,45.08429,Left,2.7734,
05/27/2024 1:01 PM,pilot03_1,50,Room_51,walk,yes,A,4,left,A,A,Pumpkin_candy_bucket,21.1209,55.04045,19.16381,54.86487,4.333075,True,21.19695,55.10732,Left,1.393424,
05/27/2024 1:02 PM,pilot03_1,51,Room_52,walk,no,A,4,left,B,B,None,29.23046,54.88569,31.07252,55.0061,4.589904,True,29.21581,54.94566,Right,1.477321,
05/27/2024 1:02 PM,pilot03_1,52,Room_53,walk,no,A,4,left,A,A,None,41.1209,55.04045,39.21455,54.81774,4.557807,True,41.19168,55.12833,Right,1.161221,
05/27/2024 1:02 PM,pilot03_1,53,Room_54,walk,yes,A,4,left,B,B,SMGP_PRE_Chicken_1024,49.23045,54.88569,51.06831,55.00329,4.404763,True,49.23796,54.96841,Right,1.854547,
05/27/2024 1:03 PM,pilot03_1,54,Room_55,walk,no,A,4,left,B,B,None,59.23045,54.88569,61.12232,54.98877,4.049687,True,59.24192,54.99296,Right,1.042122,
05/27/2024 1:03 PM,pilot03_1,55,Room_56,walk,no,A,4,left,A,A,None,71.1209,55.04045,69.19362,54.81929,4.102322,True,71.08633,55.09727,Right,0.9777001,
05/27/2024 1:04 PM,pilot03_1,56,Room_57,walk,no,A,4,left,B,A,None,79.23045,54.88569,81.10607,54.96685,4.620424,True,79.08036,54.99534,Right,1.3039,
05/27/2024 1:04 PM,pilot03_1,57,Room_58,walk,yes,A,4,left,A,B,SFP_PRE_Honey_512,91.1209,55.04045,89.20774,54.87132,5.203166,True,91.19648,55.03367,Left,1.960993,
05/27/2024 1:04 PM,pilot03_1,58,Room_59,walk,no,A,4,left,B,A,None,99.23045,54.88569,101.0669,54.9969,4.85362,True,99.18034,54.96619,Right,1.925343,
05/27/2024 1:05 PM,pilot03_1,59,Room_60,walk,yes,A,4,left,A,B,Watermelon,111.1209,55.04045,109.1967,54.7789,4.965596,True,111.2051,55.01656,Right,2.002007,
05/27/2024 1:05 PM,pilot03_1,60,Room_61,walk,yes,A,4,left,A,B,WineBottle,21.1209,65.04045,19.15753,64.84467,4.657216,True,21.19128,65.04532,Left,1.719783,
05/27/2024 1:06 PM,pilot03_1,61,Room_62,walk,no,A,4,left,B,A,None,29.23045,64.88569,31.0869,64.96868,4.767402,True,29.14786,64.9534,Right,1.658182,
05/27/2024 1:06 PM,pilot03_1,62,Room_63,walk,yes,A,4,left,A,B,Mushroom_B_00,41.1209,65.04046,39.22946,64.82763,5.032075,True,41.15136,65.06732,Left,3.297262,
05/27/2024 1:06 PM,pilot03_1,63,Room_64,walk,yes,A,4,left,B,A,Fllower_B_00,49.23045,64.88569,51.07984,64.96661,4.923841,True,49.09798,64.94271,Left,1.368762,
05/27/2024 1:07 PM,pilot03_1,64,Room_65,stay,no,A,5,left,A,A,None,59.23045,64.88569,59.17466,64.80565,5.686705,True,59.17313,64.96614,Right,0.9445273,
05/27/2024 1:07 PM,pilot03_1,65,Room_66,stay,yes,A,5,left,B,B,Stump,71.1209,65.04046,71.12742,64.99132,5.477105,True,71.22123,65.12519,Left,2.510796,
05/27/2024 1:08 PM,pilot03_1,66,Room_67,stay,no,A,5,left,B,B,None,81.1209,65.04046,81.16498,65.03599,5.487213,True,81.19749,65.22318,Right,0.9502609,
05/27/2024 1:08 PM,pilot03_1,67,Room_68,stay,yes,A,5,left,A,A,Camera,89.23045,64.88569,89.18354,64.9,6.348902,True,89.0906,65.0183,Left,1.373464,
05/27/2024 1:08 PM,pilot03_1,68,Room_69,stay,no,A,5,left,B,B,None,101.1209,65.04046,101.116,65.06159,6.028107,True,101.2107,65.16508,Right,1.049935,
05/27/2024 1:09 PM,pilot03_1,69,Room_70,stay,yes,A,5,left,A,A,Tire Stack,109.2305,64.88569,109.1675,64.88088,5.596986,True,109.06,65.02808,Left,1.169719,
05/27/2024 1:09 PM,pilot03_1,70,Room_71,stay,yes,A,5,left,A,A,Barrel with lid,19.23046,74.88569,19.17302,74.83576,5.936666,True,19.10406,75.01946,Left,1.641979,
05/27/2024 1:09 PM,pilot03_1,71,Room_72,stay,no,A,5,left,B,B,None,31.12089,75.04046,31.12387,74.98965,6.455791,True,31.19552,75.09769,Right,0.9537534,
05/27/2024 1:10 PM,pilot03_1,72,Room_73,stay,yes,A,5,left,A,B,Cake_1,39.23045,74.88569,39.16912,74.89758,6.089969,True,39.12107,74.97662,Right,1.756382,
05/27/2024 1:10 PM,pilot03_1,73,Room_74,stay,no,A,5,left,B,A,None,51.12089,75.04046,51.08799,75.00213,5.865081,True,51.20992,75.15353,Right,1.042158,
05/27/2024 1:11 PM,pilot03_1,74,Room_75,stay,no,A,5,left,A,B,None,59.23045,74.8857,59.15342,74.90456,6.365757,True,59.08199,74.9984,Left,1.604009,
05/27/2024 1:11 PM,pilot03_1,75,Room_76,stay,yes,A,5,left,A,B,Cookies_4,69.23045,74.8857,69.16837,74.82825,7.497952,True,69.11823,74.91178,Right,1.361851,
05/27/2024 1:11 PM,pilot03_1,76,Room_77,stay,yes,A,5,left,B,A,house_002,81.1209,75.04046,81.12597,75.03533,6.70522,True,81.22347,75.11392,Left,1.352001,
05/27/2024 1:12 PM,pilot03_1,77,Room_78,stay,no,A,5,left,B,A,None,91.1209,75.04046,91.19666,75.03584,5.585027,True,91.19656,75.10015,Left,2.915603,
05/27/2024 1:12 PM,pilot03_1,78,Room_79,stay,yes,A,5,left,A,B,Muffin_1,99.23045,74.8857,99.22038,74.89384,6.120775,True,99.12522,74.99332,Left,1.905409,
05/27/2024 1:12 PM,pilot03_1,79,Room_80,stay,no,A,5,left,B,A,None,111.1209,75.04046,111.1395,75.00291,5.605955,True,111.2096,75.10886,Right,0.9705483,
05/27/2024 1:13 PM,pilot03_1,80,Room_81,walk,yes,A,6,left,A,A,Trash-02a,21.1209,85.04045,19.20728,84.85953,4.896619,True,21.15116,85.0741,Left,2.579287,
05/27/2024 1:13 PM,pilot03_1,81,Room_82,walk,no,A,6,left,A,A,None,31.12089,85.04046,29.14233,84.84358,4.440798,True,31.16792,85.06453,Right,0.9607416,
05/27/2024 1:14 PM,pilot03_1,82,Room_83,walk,no,A,6,left,A,A,None,41.1209,85.04045,39.13878,84.84089,4.373997,True,41.0445,85.1123,Right,1.398581,
05/27/2024 1:14 PM,pilot03_1,83,Room_84,walk,yes,A,6,left,B,B,Noodles_1,49.23045,84.8857,51.09158,84.98769,4.180292,True,49.27757,84.90588,Left,1.79407,
05/27/2024 1:15 PM,pilot03_1,84,Room_85,walk,no,A,6,left,B,B,None,59.23045,84.88569,61.13687,84.93478,4.439442,True,59.18452,84.91135,Right,1.954195,
05/27/2024 1:15 PM,pilot03_1,85,Room_86,walk,yes,A,6,left,B,B,Sushi_2,69.23045,84.8857,71.11588,84.91842,3.959443,True,69.22693,84.9859,Left,2.817083,
05/27/2024 1:15 PM,pilot03_1,86,Room_87,walk,yes,A,6,left,B,B,Sandwich_1,79.23045,84.8857,81.09352,84.94269,4.081544,True,79.13987,84.93024,Left,1.291291,
05/27/2024 1:16 PM,pilot03_1,87,Room_88,walk,no,A,6,left,A,A,None,91.1209,85.04046,89.17942,84.80799,4.206851,True,91.09045,85.04608,Right,1.02784,
05/27/2024 1:16 PM,pilot03_1,88,Room_89,walk,no,A,6,left,A,B,None,101.1209,85.04045,99.15702,84.7999,3.93271,True,101.0755,85.11156,Right,1.071645,
05/27/2024 1:16 PM,pilot03_1,89,Room_90,walk,no,A,6,left,A,B,None,111.1209,85.04046,109.1039,84.82551,4.372728,True,111.1845,85.05037,Right,1.324287,
05/27/2024 1:17 PM,pilot03_1,90,Room_91,walk,yes,A,6,left,A,B,Binocular_01,21.1209,95.04046,19.14169,94.82897,5.047284,True,21.2106,95.02125,Left,1.299763,
05/27/2024 1:17 PM,pilot03_1,91,Room_92,walk,yes,A,6,left,B,A,Feijoa,29.23046,94.88569,31.08258,94.93144,4.605967,True,29.07693,94.92076,Left,1.233294,
05/27/2024 1:18 PM,pilot03_1,92,Room_93,walk,no,A,6,left,B,A,None,39.23045,94.8857,41.12556,94.97367,4.438276,True,39.11163,94.98151,Right,1.03735,
05/27/2024 1:18 PM,pilot03_1,93,Room_94,walk,yes,A,6,left,B,A,Carrot_01,49.23045,94.8857,51.09629,94.88707,4.749045,True,49.0615,94.99716,Left,1.324612,
05/27/2024 1:18 PM,pilot03_1,94,Room_95,walk,yes,A,6,left,A,B,CashierMachine_01,61.1209,95.04046,59.18656,94.81004,4.838365,True,61.15394,95.00964,Left,1.105036,
05/27/2024 1:19 PM,pilot03_1,95,Room_96,walk,no,A,6,left,B,A,None,69.23045,94.88569,71.09425,94.93481,4.96506,True,69.07494,94.95082,Right,1.487792,
05/27/2024 1:19 PM,pilot03_1,96,Room_97,stay,yes,A,7,left,A,A,Elephant_01,79.23045,94.88569,79.19292,94.79036,6.502368,True,79.12494,94.91899,Left,1.014881,
05/27/2024 1:20 PM,pilot03_1,97,Room_98,stay,no,A,7,left,B,B,None,91.1209,95.04046,91.08704,94.99326,5.928919,True,91.18443,95.1442,Right,0.970757,
05/27/2024 1:20 PM,pilot03_1,98,Room_99,stay,yes,A,7,left,B,B,Guitar_01,101.1209,95.04046,101.1681,95.0218,5.302738,True,101.1965,95.09381,Left,1.310063,
05/27/2024 1:20 PM,pilot03_1,99,Room_100,stay,yes,A,7,left,B,B,KidHouse_01,111.1209,95.04045,111.1767,94.97756,6.050605,True,111.1413,95.05991,Left,1.315861,
05/27/2024 1:21 PM,pilot03_1,100,Room_101,stay,no,A,7,left,B,B,None,21.12089,105.0405,21.13516,105.0085,5.653368,True,21.23358,105.0731,Right,2.294492,
05/27/2024 1:21 PM,pilot03_1,101,Room_102,stay,yes,A,7,left,A,A,Indian_elephant,29.23046,104.8857,29.20205,104.8837,6.020543,True,29.08743,105.0151,Left,1.187832,
05/27/2024 1:21 PM,pilot03_1,102,Room_103,stay,no,A,7,left,A,A,None,39.23045,104.8857,39.1749,104.8406,5.500412,True,39.2127,105.0146,Right,0.9643241,
05/27/2024 1:22 PM,pilot03_1,103,Room_104,stay,no,A,7,left,A,A,None,49.23045,104.8857,49.11672,104.9148,5.778112,True,49.10849,104.9698,Right,0.9694158,
05/27/2024 1:22 PM,pilot03_1,104,Room_105,stay,no,A,7,left,B,A,None,61.1209,105.0405,61.09954,105.0127,6.093576,True,61.26154,105.1679,Right,2.302744,
05/27/2024 1:22 PM,pilot03_1,105,Room_106,stay,yes,A,7,left,A,B,Horseradish,69.23045,104.8857,69.18061,104.89,6.696016,True,69.0814,104.998,Left,1.367133,
05/27/2024 1:23 PM,pilot03_1,106,Room_107,stay,yes,A,7,left,A,B,PiggyBank_01,79.23045,104.8857,79.08604,104.94,5.769494,True,79.10606,104.9945,Left,2.071311,
05/27/2024 1:23 PM,pilot03_1,107,Room_108,stay,no,A,7,left,B,A,None,91.1209,105.0405,91.10633,105.0013,6.196541,True,91.21725,105.1654,Right,1.837263,
05/27/2024 1:24 PM,pilot03_1,108,Room_109,stay,no,A,7,left,B,A,None,101.1209,105.0405,101.1992,105.0768,6.928166,True,101.1419,105.1241,Left,2.967209,
05/27/2024 1:24 PM,pilot03_1,109,Room_110,stay,yes,A,7,left,B,A,Pepper_2,111.1209,105.0405,111.2128,105.0596,7.320359,True,111.2297,105.1054,Left,2.014879,
05/27/2024 1:24 PM,pilot03_1,110,Room_111,stay,no,A,7,left,A,B,None,19.23045,114.8857,19.15023,114.8805,6.780845,True,19.14497,115.0363,Right,2.077232,
05/27/2024 1:25 PM,pilot03_1,111,Room_112,stay,yes,A,7,left,A,B,Pumpkin_2,29.23046,114.8857,29.11268,114.9116,6.463212,True,29.1203,115.0213,Right,4.202305,
05/27/2024 1:25 PM,pilot03_1,112,Room_113,walk,no,A,8,left,A,A,None,41.1209,115.0405,39.19376,114.8067,4.213942,True,41.10095,115.0507,Right,1.031819,
05/27/2024 1:26 PM,pilot03_1,113,Room_114,walk,yes,A,8,left,B,B,Lychee,49.23045,114.8857,51.04329,114.9721,5.592792,True,49.0431,114.9177,Right,3.336395,
05/27/2024 1:26 PM,pilot03_1,114,Room_115,walk,no,A,8,left,B,B,None,59.23045,114.8857,61.135,115.0258,4.768312,True,59.0852,114.948,Right,1.099793,
05/27/2024 1:26 PM,pilot03_1,115,Room_116,walk,yes,A,8,left,B,B,ToddlerBike_01,69.23045,114.8857,71.12326,114.9812,3.877072,True,69.30238,114.9465,Left,2.124361,
05/27/2024 1:27 PM,pilot03_1,116,Room_117,walk,yes,A,8,left,A,A,ToyBox_01,81.1209,115.0405,79.17037,114.8205,4.59147,True,81.14499,115.0478,Left,1.963367,
05/27/2024 1:27 PM,pilot03_1,117,Room_118,walk,yes,A,8,left,B,B,Lute_01,89.23045,114.8857,91.08339,114.9473,4.293402,True,89.28899,114.9407,Right,1.595135,
05/27/2024 1:27 PM,pilot03_1,118,Room_119,walk,no,A,8,left,A,A,None,101.1209,115.0405,99.15607,114.8003,4.024512,True,101.156,115.0265,Right,0.9431382,
05/27/2024 1:28 PM,pilot03_1,119,Room_120,walk,no,A,8,left,A,A,None,111.1209,115.0405,109.1641,114.8283,4.717223,True,111.1831,115.0352,Right,0.9551881,
05/27/2024 1:28 PM,pilot03_1,120,Room_1,walk,yes,B,8,left,A,B,SMGP_PRE_Whipped_cream_1024,21.1209,5.040455,19.13897,4.824572,4.163532,True,21.21319,5.031116,Left,1.838395,
05/27/2024 1:29 PM,pilot03_1,121,Room_2,walk,yes,B,8,left,B,A,bowl,29.23046,4.885692,31.08317,4.962087,4.567259,True,29.08207,4.965487,Left,1.440177,
05/27/2024 1:29 PM,pilot03_1,122,Room_3,walk,no,B,8,left,A,B,None,41.1209,5.040457,39.14634,4.783277,4.232393,True,41.13912,5.053098,Right,0.9767721,
05/27/2024 1:29 PM,pilot03_1,123,Room_4,walk,no,B,8,left,B,A,None,49.23045,4.885691,51.06683,4.953818,4.371504,True,49.17708,4.89437,Right,1.297093,
05/27/2024 1:30 PM,pilot03_1,124,Room_5,walk,no,B,8,left,B,A,None,59.23045,4.885691,61.14023,4.892052,3.986936,True,59.21059,4.893578,Right,0.9165646,
05/27/2024 1:30 PM,pilot03_1,125,Room_6,walk,yes,B,8,left,A,B,frenchFries,71.1209,5.040455,69.18549,4.783271,4.265122,True,71.18364,5.026927,Left,1.161777,
05/27/2024 1:30 PM,pilot03_1,126,Room_7,walk,no,B,8,left,A,B,None,81.1209,5.040456,79.12493,4.823569,4.642259,True,81.24915,4.983847,Left,1.467405,
05/27/2024 1:31 PM,pilot03_1,127,Room_8,walk,yes,B,8,left,B,A,chickenLeg,89.23045,4.885692,91.09859,4.925115,4.399263,True,89.21368,4.933157,Left,1.181661,
