Timestamp,subID,trial,Room,Condition,moveItem,Repeat,Block,ObjectMovedIs,start,end,TargetObject,TarPos_x,TarPos_z,Start_SubPos_x,Start_SubPos_z,Delay_time,TargetReached,End_SubPos_x,End_SubPos_z,response,RT,
06/18/2024 5:18 PM,y06a_part2,0,Room_21,stay,no,A,5,right,A,A,None,19.23046,24.88269,19.19617,24.90095,7.012141,True,19.21509,24.83521,Left,2.032938,
06/18/2024 5:18 PM,y06a_part2,1,Room_60,stay,no,A,5,right,B,B,None,111.1209,55.04045,111.09,55.09773,7.008972,True,111.2167,55.10812,Left,0.965372,
06/18/2024 5:19 PM,y06a_part2,2,Room_15,stay,no,A,5,right,B,B,None,61.1209,15.04046,61.22342,14.98716,7.021443,True,61.26186,15.05563,Left,0.8306389,
06/18/2024 5:19 PM,y06a_part2,3,Room_84,stay,yes,A,5,right,A,A,Noodles_1,49.23045,84.8857,49.36506,84.89213,7.013788,True,49.21597,84.89449,Right,1.115819,
06/18/2024 5:20 PM,y06a_part2,4,Room_61,stay,yes,A,5,right,B,B,WineBottle,21.1209,65.04045,21.24559,64.86428,7.002195,True,21.18103,64.90582,Right,0.754554,
06/18/2024 5:20 PM,y06a_part2,5,Room_66,stay,no,A,5,right,A,A,None,69.23045,64.8857,69.26362,64.77519,7.018587,True,69.32562,64.81919,Left,0.9601444,
06/18/2024 5:20 PM,y06a_part2,6,Room_88,stay,yes,A,5,right,A,A,Fig,89.23045,84.8857,89.34113,84.86682,7.008394,True,89.15648,84.88378,Right,0.6684498,
06/18/2024 5:21 PM,y06a_part2,7,Room_69,stay,yes,A,5,right,B,B,Traffic cone 2,101.1209,65.04046,101.2758,64.95918,7.011086,True,101.2599,65.06895,Right,1.512513,
06/18/2024 5:21 PM,y06a_part2,8,Room_42,stay,yes,A,5,right,A,B,Flashlight-2,29.23046,44.88569,29.27779,44.82017,7.001987,True,29.23948,44.85547,Right,0.8004642,
06/18/2024 5:22 PM,y06a_part2,9,Room_17,stay,no,A,5,right,B,A,None,81.1209,15.04046,81.18047,15.052,7.021332,True,81.18285,14.97274,Left,0.9370787,
06/18/2024 5:22 PM,y06a_part2,10,Room_29,stay,no,A,5,right,A,B,None,101.9486,25.875,102.0362,25.86852,7.007854,True,102.014,25.91714,Right,2.845886,
06/18/2024 5:22 PM,y06a_part2,11,Room_23,stay,yes,A,5,right,A,B,Books,39.23045,24.88569,39.35535,24.7919,7.009614,True,39.33011,24.83259,Left,1.150471,
06/18/2024 5:23 PM,y06a_part2,12,Room_119,stay,no,A,5,right,B,A,None,101.1209,115.0405,101.1212,115.1036,7.00184,True,101.132,114.9842,Left,2.155619,
06/18/2024 5:23 PM,y06a_part2,13,Room_116,stay,yes,A,5,right,B,A,Zucchini,71.1209,115.0405,71.11843,114.9583,7.00526,True,71.11709,114.951,Left,1.22314,
06/18/2024 5:24 PM,y06a_part2,14,Room_107,stay,yes,A,5,right,A,B,PiggyBank_01,79.23045,104.8857,79.29187,104.7847,7.021867,True,79.31085,104.8532,Right,1.401193,
06/18/2024 5:24 PM,y06a_part2,15,Room_71,stay,no,A,5,right,B,A,None,21.1209,75.04046,21.33112,74.95699,7.005325,True,21.22114,74.92999,Left,1.171791,
06/18/2024 5:24 PM,y06a_part2,16,Room_10,walk,no,A,6,right,A,A,None,111.1209,5.040458,109.1289,4.897482,7.026618,True,111.1631,5.023518,Left,0.7609363,
06/18/2024 5:25 PM,y06a_part2,17,Room_41,walk,yes,A,6,right,A,A,Skittle,21.1209,45.04046,19.21952,44.80888,7.00529,True,21.1465,44.99352,Right,0.9908322,
06/18/2024 5:25 PM,y06a_part2,18,Room_54,walk,yes,A,6,right,A,A,SMGP_PRE_Chicken_1024,51.1209,55.04046,49.14449,54.88719,7.010117,True,51.32211,55.11211,Right,0.635756,
06/18/2024 5:26 PM,y06a_part2,19,Room_108,walk,no,A,6,right,B,B,None,89.23045,104.8857,91.13297,104.9457,7.006098,True,89.369,104.8501,Left,1.086501,
06/18/2024 5:26 PM,y06a_part2,20,Room_2,walk,no,A,6,right,B,B,None,29.23046,4.885692,31.13282,5.108593,7.000713,True,29.23936,4.938478,Left,2.451045,
06/18/2024 5:27 PM,y06a_part2,21,Room_16,walk,yes,A,6,right,B,B,muscle type a color 1,69.23045,14.88569,71.30877,15.08272,7.007917,True,69.31945,14.87686,Left,2.717615,
06/18/2024 5:27 PM,y06a_part2,22,Room_102,walk,yes,A,6,right,B,B,LawnMover_01,29.23046,104.8857,31.20643,104.8499,8.629478,True,29.21901,104.7308,Right,1.227746,
06/18/2024 5:27 PM,y06a_part2,23,Room_27,walk,no,A,6,right,A,A,None,81.1209,25.04046,79.27953,24.68951,7.019829,True,81.09428,24.94863,Left,1.513113,
06/18/2024 5:28 PM,y06a_part2,24,Room_120,walk,yes,A,6,right,A,B,Phonograph_01,111.1209,115.0405,109.2384,114.8266,7.032617,True,111.1818,114.9256,Right,1.190621,
06/18/2024 5:28 PM,y06a_part2,25,Room_98,walk,no,A,6,right,A,B,None,91.1209,95.04046,89.2029,94.87061,7.012622,True,91.17775,94.96333,Left,1.363116,
06/18/2024 5:29 PM,y06a_part2,26,Room_58,walk,no,A,6,right,A,B,None,91.1209,55.04045,89.26983,54.85376,7.015775,True,91.22033,54.91501,Left,1.649121,
06/18/2024 5:29 PM,y06a_part2,27,Room_48,walk,yes,A,6,right,B,A,SMGP_PRE_Soda_1024,89.23045,44.88569,91.16132,45.08846,7.00285,True,89.28146,44.95286,Right,0.9560665,
06/18/2024 5:30 PM,y06a_part2,28,Room_75,walk,yes,A,6,right,B,A,house_003,59.23045,74.8857,61.35118,74.9754,8.459066,True,59.29731,74.84557,Left,1.653969,
06/18/2024 5:30 PM,y06a_part2,29,Room_82,walk,yes,A,6,right,A,B,Grape_1,31.12089,85.04046,29.27758,84.73735,7.022065,True,31.00131,84.76496,Left,0.838724,
06/18/2024 5:31 PM,y06a_part2,30,Room_51,walk,no,A,6,right,B,A,None,19.23046,54.88569,21.11667,54.97827,7.02891,True,19.27161,54.88211,Left,0.7404584,
06/18/2024 5:31 PM,y06a_part2,31,Room_1,walk,no,A,6,right,B,A,None,19.23046,4.885692,21.16152,4.882033,7.016108,True,19.32241,4.951388,Left,0.6735377,
06/18/2024 5:32 PM,y06a_part2,32,Room_50,stay,yes,A,7,right,A,A,SFP_PRE_Pot_noodles_1024,109.2305,44.88569,109.3431,44.84353,7.0137,True,109.192,44.83981,Left,1.547721,
06/18/2024 5:32 PM,y06a_part2,33,Room_76,stay,no,A,7,right,B,B,None,71.1209,75.04046,71.18587,75.0931,7.007629,True,71.21535,74.99686,Left,0.7792948,
06/18/2024 5:32 PM,y06a_part2,34,Room_46,stay,no,A,7,right,B,B,None,71.1209,45.04045,71.20625,45.01211,7.012482,True,71.33495,45.08551,Left,0.7962708,
06/18/2024 5:33 PM,y06a_part2,35,Room_20,stay,yes,A,7,right,B,B,RFAIPP_Lamp,111.1209,15.04046,111.1245,15.12429,7.035664,True,111.3318,15.02386,Right,0.9133224,
06/18/2024 5:33 PM,y06a_part2,36,Room_13,stay,no,A,7,right,B,B,None,40.7636,14.87559,40.81358,14.78549,7.013634,True,40.91994,14.68513,Left,0.6631663,
06/18/2024 5:34 PM,y06a_part2,37,Room_37,stay,no,A,7,right,A,A,None,79.23045,34.88569,79.20458,34.88445,7.004185,True,79.20765,34.95467,Left,0.9479364,
06/18/2024 5:34 PM,y06a_part2,38,Room_62,stay,yes,A,7,right,A,A,Concrete barrier,29.23045,64.88569,29.3074,64.63925,7.003883,True,29.17918,64.70807,Left,1.154566,
06/18/2024 5:35 PM,y06a_part2,39,Room_8,stay,yes,A,7,right,A,A,burger,89.23045,4.885692,89.18217,4.680552,7.009711,True,89.1883,4.832181,Right,1.608236,
06/18/2024 5:35 PM,y06a_part2,40,Room_114,stay,no,A,7,right,B,A,None,51.1209,115.0405,51.17209,114.862,7.009501,True,51.29216,115.0644,Left,0.8440229,
06/18/2024 5:35 PM,y06a_part2,41,Room_101,stay,no,A,7,right,A,B,None,19.23046,104.8857,19.21923,104.7989,7.003638,True,19.33862,104.8083,Left,0.8494149,
06/18/2024 5:36 PM,y06a_part2,42,Room_86,stay,yes,A,7,right,A,B,Sushi_2,69.23045,84.8857,69.33425,84.80386,7.00941,True,69.32536,84.81482,Left,1.952473,
06/18/2024 5:36 PM,y06a_part2,43,Room_72,stay,yes,A,7,right,B,A,fir_001,31.12089,75.04046,31.29811,75.12787,7.021725,True,31.31303,74.9486,Left,0.8357991,
06/18/2024 5:37 PM,y06a_part2,44,Room_40,stay,yes,A,7,right,B,A,Beer,111.1209,35.04045,111.2551,34.96202,7.010331,True,111.3303,35.15515,Left,0.5481653,
06/18/2024 5:37 PM,y06a_part2,45,Room_30,stay,no,A,7,right,B,A,None,111.1209,25.04046,111.3758,25.13487,7.005163,True,111.2069,25.05046,Left,0.8246934,
06/18/2024 5:37 PM,y06a_part2,46,Room_55,stay,yes,A,7,right,A,B,SMGP_PRE_Potatoes_1024,59.23045,54.88569,59.2505,54.79712,7.000371,True,59.29456,54.79711,Right,1.355044,
06/18/2024 5:38 PM,y06a_part2,47,Room_65,stay,no,A,7,right,A,B,None,59.23045,64.88569,59.30951,64.8219,7.016916,True,59.37503,64.78402,Left,0.7175339,
06/18/2024 5:38 PM,y06a_part2,48,Room_77,walk,yes,A,8,right,A,A,house_002,81.1209,75.04046,79.23834,74.88138,7.004773,True,81.08796,74.94248,Left,0.8277515,
06/18/2024 5:39 PM,y06a_part2,49,Room_78,walk,no,A,8,right,B,B,None,89.23045,74.88569,91.07304,75.0652,7.017524,True,89.33249,74.90162,Left,1.902711,
06/18/2024 5:39 PM,y06a_part2,50,Room_39,walk,yes,A,8,right,B,B,Toster,99.23045,34.88569,101.2546,34.95954,7.033133,True,99.36934,34.88655,Left,1.036137,
06/18/2024 5:40 PM,y06a_part2,51,Room_49,walk,no,A,8,right,B,B,None,99.23045,44.88569,101.1335,44.92915,10.34675,True,99.43486,44.95207,Left,0.7337958,
06/18/2024 5:40 PM,y06a_part2,52,Room_4,walk,no,A,8,right,A,A,None,51.1209,5.040456,49.15475,4.889318,7.015585,True,51.19659,4.979771,Left,1.355379,
06/18/2024 5:41 PM,y06a_part2,53,Room_80,walk,yes,A,8,right,B,B,Panna Cotta_2,109.2305,74.88569,111.1307,75.06364,9.382771,True,109.2827,74.76214,Left,3.721267,
06/18/2024 5:41 PM,y06a_part2,54,Room_91,walk,no,A,8,right,A,A,None,21.1209,95.04046,19.39161,94.80127,7.019169,True,21.02402,94.79108,Left,0.7833436,
06/18/2024 5:41 PM,y06a_part2,55,Room_94,walk,yes,A,8,right,A,A,Carrot_01,51.1209,95.04045,49.17957,94.87392,7.00794,True,51.09743,94.93591,Left,1.200184,
06/18/2024 5:42 PM,y06a_part2,56,Room_119,walk,yes,B,8,right,A,B,Microphone_01,101.1209,115.0405,99.21375,114.7912,7.009025,True,101.0728,114.8546,Right,1.159052,
06/18/2024 5:42 PM,y06a_part2,57,Room_50,walk,yes,B,8,right,B,A,SFP_PRE_Whiskey_1024,109.2305,44.88569,111.1124,44.96176,7.000172,True,109.3918,44.7866,Right,2.788069,
06/18/2024 5:43 PM,y06a_part2,58,Room_102,walk,no,B,8,right,A,B,None,31.1209,105.0405,29.33802,104.6904,7.946019,True,31.12551,104.9963,Left,1.666316,
06/18/2024 5:43 PM,y06a_part2,59,Room_78,walk,no,B,8,right,B,A,None,89.23045,74.88569,91.10142,74.9747,7.016472,True,89.30236,74.70163,Left,2.382415,
06/18/2024 5:44 PM,y06a_part2,60,Room_63,walk,yes,B,8,right,A,B,Mushroom_B_00,41.1209,65.04046,39.27994,64.89906,7.007936,True,41.11654,64.90305,Right,1.520866,
06/18/2024 5:44 PM,y06a_part2,61,Room_113,walk,no,B,8,right,B,A,None,39.23045,114.8857,41.0863,114.9398,7.01689,True,39.25805,114.8527,Left,1.224526,
06/18/2024 5:45 PM,y06a_part2,62,Room_10,walk,yes,B,8,right,A,B,FFP_PRE_CLE_01_Bell_pepper_1024,111.1209,5.040458,109.293,4.820011,8.705502,True,111.1751,4.927328,Right,2.282141,
06/18/2024 5:45 PM,y06a_part2,63,Room_16,walk,no,B,8,right,B,A,None,69.23045,14.88569,71.17857,15.04337,7.016179,True,69.33064,14.77024,Left,1.061835,
