subID,trial,Room,Condition,moveItem,Repeat,Block,ObjectMovedIs,start,end,TarPos_x,TarPos_z,TarRot_x,TarRot_z,Start_SubPos_x,Start_SubPos_z,Start_SubRot_x,Start_SubRot_z,End_SubPos_x,End_SubPos_z,End_SubRot_x,End_SubRot_z,response,RT,
testing_eye,0,Room_55,stay,yes,A,1,left,A,B,60.76955,59.11431,0,0,60.76727,58.98858,0.02975148,-0.42576,60.64842,58.84881,-0.07872918,-0.5192566,Left,11.57854,
testing_eye,0,Room_55,stay,yes,A,1,left,B,B,70.40092,59.2216,0,0,70.38304,59.02671,-0.01631067,-0.2266286,70.35999,58.98256,-0.00661265,-0.2754672,Left,11.42825,
testing_eye,1,Room_56,stay,no,B,1,left,A,B,61.125,98.94855,0,0,61.06531,98.71497,-0.04837944,-0.2516471,61.01328,98.66309,-0.06929038,-0.5521327,Left,10.24713,
testing_eye,0,Room_55,stay,yes,A,1,left,A,B,60.76955,59.11431,0,0,60.7974,59.03211,-0.02352658,-0.2296523,59.86282,58.85535,-0.03140055,-0.4486271,Left,11.02185,
testing_eye,0,Room_55,stay,yes,A,1,left,B,B,70.40092,59.2216,0,0,70.36063,59.0066,-0.02199732,-0.249168,70.29247,58.97494,-0.07133955,-0.4798242,Left,9.248281,
testing_eye,1,Room_56,stay,no,B,1,left,A,B,61.125,98.94855,0,0,61.02697,98.75105,-0.05990341,-0.1966923,61.07174,98.7994,-0.06263185,-0.2322267,Left,9.207073,
testing_eye,2,Room_95,stay,no,A,1,left,B,A,37.7784,117.4009,0,0,37.96007,117.4444,0.1339468,-0.1276359,38.12343,117.3555,0.2790387,-0.3907565,Left,10.53658,
testing_eye,3,Room_113,stay,yes,A,1,left,A,A,89.23045,49.11431,0,0,89.29283,49.03497,0.03213301,-0.2485444,89.34458,48.93013,0.01284595,-0.1562993,Right,11.11599,
testing_eye,4,Room_48,stay,yes,A,1,left,A,A,100.3907,54.78418,0,0,100.3204,54.89698,0.1889088,0.05358761,100.4361,54.93596,0.4558425,0.00316864,Left,10.19752,
testing_eye,5,Room_59,stay,no,A,1,left,B,A,81.95954,48.1209,0,0,81.84593,48.00511,-0.1009435,-0.2107236,81.82059,47.98161,-0.2119142,-0.3864983,Right,11.98985,
testing_eye,6,Room_47,stay,yes,A,1,left,A,B,18.2764,28.44327,0,0,18.42721,28.39397,0.1279203,-0.1637485,18.42385,28.34971,0.1310322,-0.1863735,Left,10.74629,
testing_eye,7,Room_21,stay,no,B,1,left,A,A,37.78418,27.39071,0,0,37.94407,27.36216,0.09861789,-0.123035,37.9404,27.31593,0.08888017,-0.145534,Left,10.51859,
testing_eye,8,Room_23,stay,no,B,1,left,A,A,51.94855,98.125,0,0,51.97276,98.06595,0.1224036,0.2187233,51.86808,98.08246,0.1492384,0.1828917,No response,N/A,
testing_eye,9,Room_94,stay,yes,A,1,left,A,B,41.94855,88.125,0,0,41.86889,88.03544,-0.05416987,-0.1369773,41.8464,88.04226,0.06213924,0.1364743,No response,N/A,
testing_eye,10,Room_83,stay,yes,B,1,left,B,B,48.86343,105.0495,0,0,48.89453,105.1507,0.2138663,-0.0754837,48.93322,105.1352,0.231965,-0.09065484,No response,N/A,
testing_eye,11,Room_104,stay,no,A,1,left,B,B,90.40092,29.2216,0,0,90.47522,29.10048,0.01128861,-0.1684636,90.39118,29.11423,-0.06313113,-0.3497657,No response,N/A,
testing_eye,12,Room_28,stay,no,A,1,left,B,A,32.25746,76.99095,0,0,32.2417,76.9567,0.1312459,0.1160181,32.21748,77.02651,0.04497876,-0.006589217,No response,N/A,
testing_eye,13,Room_72,stay,no,A,1,left,B,B,20.38309,84.77526,0,0,20.3885,84.75663,0.1658105,-0.009945832,20.35636,84.88622,0.3973525,0.03913587,No response,N/A,
testing_eye,14,Room_81,stay,yes,A,1,left,B,A,29.2194,104.8818,0,0,29.20839,104.9617,0.2089966,-0.03102972,29.25364,104.9794,0.2763914,-0.06742426,No response,N/A,
testing_eye,15,Room_102,stay,yes,B,1,left,B,A,37.88569,67.76955,0,0,38.14927,65.92945,0.135061,-0.1396068,38.14437,67.74315,0.4246089,-0.1849812,No response,N/A,
testing_eye,16,Room_63,walk,no,A,2,left,B,B,32.25,117,0,0,31.40059,118.6646,-0.01277289,-0.0421062,32.18167,117.0154,0.09170572,0.05642565,No response,N/A,
testing_eye,17,Room_112,walk,no,A,2,left,B,B,109.6093,34.78418,0,0,111.3431,35.30527,0.1539482,0.06528742,109.6403,34.89547,0.08172307,-0.03489378,No response,N/A,
testing_eye,18,Room_40,walk,no,A,2,left,A,A,102.1244,27.7636,0,0,101.809,25.99414,0.2321335,0.1145867,101.9831,27.65089,0.1136498,0.1538995,No response,N/A,
testing_eye,19,Room_29,walk,yes,A,2,left,A,B,109.2364,59.12442,0,0,111.0874,58.84691,-0.0298603,-0.1400891,109.3269,58.91031,0.06952484,-0.4307748,No response,N/A,
testing_eye,20,Room_60,walk,no,B,2,left,B,B,111.9486,98.125,0,0,110.3983,99.09707,-0.01923043,-0.2001369,111.9322,98.02383,-0.008389922,-0.05150021,No response,N/A,
testing_eye,21,Room_100,walk,no,B,2,left,A,B,32.11823,86.2194,0,0,30.7159,85.0004,0.1894663,0.03070856,31.97281,86.22414,0.01885598,-0.01502386,No response,N/A,
testing_eye,22,Room_82,walk,no,B,2,left,A,B,40.7636,104.8756,0,0,38.85281,105.17,0.1069452,-0.01406439,40.6829,105.0135,0.3989125,0.07933284,No response,N/A,
testing_eye,23,Room_103,walk,yes,A,2,left,A,A,19.61691,69.22474,0,0,21.38096,68.59682,-0.08550523,-0.2070339,19.67225,69.07582,-0.008910504,-0.05256416,No response,N/A,
testing_eye,24,Room_61,walk,yes,A,2,left,A,B,89.59908,4.778404,0,0,88.16409,5.904413,0.08032645,-0.06348613,89.61772,4.89942,0.3535465,-0.07011363,No response,N/A,
testing_eye,25,Room_8,walk,no,B,2,left,B,A,60.76955,59.11431,0,0,58.91784,58.85457,0.03412559,-0.2238863,60.71096,59.04562,-0.02098585,-0.07542389,No response,N/A,
testing_eye,26,Room_55,walk,yes,B,2,left,A,A,109.2364,59.12442,0,0,111.1154,58.87332,-0.01659117,-0.07927377,109.3193,59.01892,0.0043682,-0.1380302,No response,N/A,
testing_eye,27,Room_60,walk,yes,A,2,left,B,B,38.875,98.94855,0,0,37.87415,97.38228,0.1803444,-0.2159621,38.95553,98.81747,0.0181271,-0.07862592,No response,N/A,
testing_eye,28,Room_93,walk,no,A,2,left,A,A,108.8634,75.04951,0,0,107.8996,76.60977,0.1223553,-0.1451851,108.9149,75.15352,0.1368524,-0.05562072,No response,N/A,
testing_eye,29,Room_80,walk,yes,B,2,left,B,A,61.94855,115.875,0,0,62.02748,117.6702,0.05760914,0.09907355,61.88825,115.9203,0.1333927,0.06116584,No response,N/A,
testing_eye,30,Room_115,walk,yes,A,2,left,B,A,58.05145,78.125,0,0,58.01761,76.22498,0.1367577,-0.1416065,58.14881,78.07835,0.03656669,-0.07097284,No response,N/A,
testing_eye,31,Room_75,walk,yes,B,2,left,A,A,32.25,47,0,0,32.16433,47.01068,0.1507806,0.08880974,32.07598,46.96377,0.1021808,0.1305085,No response,N/A,
testing_eye,0,Room_121,stay,yes,A,1,left,A,A,32.25,133.05,0,0,32.20851,133.0712,0.1986615,0.0932548,32.12513,133.0935,0.04321102,0.04100731,No response,N/A,
testing_eye,0,Room_121,stay,yes,A,1,left,A,B,61.94855,131.925,0,0,61.87849,131.9655,0.183295,0.07570444,61.84538,131.8657,0.08983796,0.06798302,No response,N/A,
testing_eye,1,Room_122,stay,no,A,1,left,B,B,98.26487,131.6059,0,0,98.30531,131.6631,0.1897396,-0.09964938,98.39817,131.6908,0.07720888,-0.07645207,No response,N/A,
testing_eye,2,Room_123,stay,no,A,1,left,B,A,110.7806,135.1682,0,0,110.8468,135.1129,0.01749189,-0.1596219,110.8391,135.0783,0.01780136,-0.07305963,No response,N/A,
testing_eye,3,Room_124,stay,yes,A,1,left,A,B,67.88569,133.8195,0,0,68.03795,133.7715,0.1116075,-0.1383627,68.03812,133.8009,0.08447648,-0.1481292,No response,N/A,
testing_eye,4,Room_125,stay,no,A,1,left,A,B,22.11823,132.2694,0,0,20.73764,130.9776,0.1435539,0.035785,21.95004,132.2967,0.1519279,0.08494962,No response,N/A,
testing_eye,5,Room_126,walk,yes,A,2,left,B,A,38.875,134.9986,0,0,37.87733,133.3892,0.0705326,-0.1127164,38.94978,134.8813,0.02610708,-0.1298421,No response,N/A,
testing_eye,6,Room_127,walk,no,A,2,left,A,A,49.2194,130.9318,0,0,48.01596,132.3353,0.157163,-0.08171484,49.29217,131.1865,0.1319088,-0.03683232,No response,N/A,
testing_eye,7,Room_128,walk,yes,A,2,left,B,B,92.11431,132.2805,0,0,91.90462,134.0213,-0.0645133,-0.1210947,92.03336,132.3026,0.1006558,0.0398751,No response,N/A,
testing_eye,8,Room_129,walk,no,A,2,left,A,B,79.2194,130.9318,0,0,77.98896,132.3338,0.1564579,-0.1080875,79.25146,131.0742,0.1392654,-0.05701713,No response,N/A,
